"subj","trial","targSide","RT","acc","block","incentive"
"1",1,1,"homogenous",1.215,1,"1","r"
"2",1,2,"absent",1.27,1,"1","r"
"3",1,3,"homogenous",0.92,0,"1","r"
"4",1,4,"absent",1.216,0,"1","r"
"5",1,5,"heterogenous",1.881,1,"1","r"
"6",1,6,"absent",1.46,0,"1","r"
"7",1,7,"absent",1.819,1,"1","r"
"8",1,8,"homogenous",1.022,1,"1","r"
"9",1,9,"heterogenous",1.079,0,"1","r"
"10",1,10,"heterogenous",1.483,1,"1","r"
"11",1,11,"absent",1.321,0,"1","r"
"12",1,12,"absent",1.632,0,"1","r"
"13",1,13,"homogenous",0.774,1,"1","r"
"14",1,14,"homogenous",0.944,1,"1","r"
"15",1,15,"absent",1.024,0,"1","r"
"16",1,16,"absent",1.103,1,"1","r"
"17",1,17,"homogenous",0.899,1,"1","r"
"18",1,18,"homogenous",0.732,1,"1","r"
"19",1,19,"homogenous",0.65,1,"1","r"
"20",1,20,"heterogenous",1.022,1,"1","r"
"21",1,21,"absent",1.181,1,"1","r"
"22",1,22,"absent",1.151,0,"1","r"
"23",1,23,"absent",1.223,1,"1","r"
"24",1,24,"absent",1.389,1,"1","r"
"25",1,25,"absent",1.21,0,"1","r"
"26",1,26,"heterogenous",1.322,0,"1","r"
"27",1,27,"absent",1.442,1,"1","r"
"28",1,28,"absent",1.541,1,"1","r"
"29",1,29,"homogenous",0.77,1,"1","r"
"30",1,30,"absent",1.121,1,"1","r"
"31",1,31,"absent",1.815,1,"1","r"
"32",1,32,"homogenous",0.844,1,"1","r"
"33",1,33,"absent",1.183,1,"1","r"
"34",1,34,"absent",0.72,1,"1","r"
"35",1,35,"heterogenous",0.744,0,"1","r"
"36",1,36,"absent",1.35,1,"1","r"
"37",1,37,"absent",1.081,1,"1","r"
"38",1,38,"heterogenous",1.142,0,"1","r"
"39",1,39,"absent",1.5,0,"1","r"
"40",1,40,"homogenous",0.895,1,"1","r"
"41",1,41,"heterogenous",1.591,1,"1","r"
"42",1,42,"heterogenous",1.183,1,"1","r"
"43",1,43,"absent",1.451,1,"1","r"
"44",1,44,"homogenous",0.971,1,"1","r"
"45",1,45,"absent",1.15,1,"1","r"
"46",1,46,"heterogenous",1.229,0,"1","r"
"47",1,47,"homogenous",0.793,1,"1","r"
"48",1,48,"absent",1.422,1,"1","r"
"49",1,49,"absent",1.349,1,"1","r"
"50",1,50,"absent",1.122,1,"1","r"
"51",1,51,"heterogenous",1.098,1,"1","r"
"52",1,52,"heterogenous",1.165,0,"1","r"
"53",1,53,"homogenous",0.854,1,"1","r"
"54",1,54,"absent",1.528,1,"1","r"
"55",1,55,"absent",1.152,1,"1","r"
"56",1,56,"heterogenous",0.882,1,"1","r"
"57",1,57,"absent",1.561,0,"1","r"
"58",1,58,"absent",1.603,0,"1","r"
"59",1,59,"absent",1.314,1,"1","r"
"60",1,60,"absent",1.344,1,"1","r"
"61",1,61,"heterogenous",1.092,0,"1","r"
"62",1,62,"homogenous",0.818,1,"1","r"
"63",1,63,"absent",1.151,1,"1","r"
"64",1,64,"heterogenous",1.603,1,"1","r"
"65",1,65,"absent",1.471,0,"1","r"
"66",1,66,"absent",1.27,1,"1","r"
"67",1,67,"homogenous",1.193,1,"1","r"
"68",1,68,"absent",1.014,1,"1","r"
"69",1,69,"absent",0.774,1,"1","r"
"70",1,70,"heterogenous",1.009,1,"1","r"
"71",1,71,"homogenous",0.733,1,"1","r"
"72",1,72,"absent",0.832,1,"1","r"
"73",1,73,"heterogenous",0.959,1,"1","r"
"74",1,74,"heterogenous",1.032,0,"1","r"
"75",1,75,"absent",0.824,0,"1","r"
"76",1,76,"absent",1.372,1,"1","r"
"77",1,77,"absent",1.302,1,"1","r"
"78",1,78,"homogenous",0.845,1,"1","r"
"79",1,79,"heterogenous",0.94,0,"1","r"
"80",1,80,"heterogenous",1.182,0,"1","r"
"81",1,81,"homogenous",1.124,1,"1","r"
"82",1,82,"absent",0.725,1,"1","r"
"83",1,83,"homogenous",0.655,1,"1","r"
"84",1,84,"homogenous",0.772,1,"1","r"
"85",1,85,"heterogenous",0.89,0,"1","r"
"86",1,86,"heterogenous",0.941,0,"1","r"
"87",1,87,"absent",1.251,0,"1","r"
"88",1,88,"heterogenous",1.201,0,"1","r"
"89",1,89,"homogenous",1.793,1,"1","r"
"90",1,90,"absent",2.205,1,"1","r"
"91",1,91,"homogenous",0.913,1,"1","r"
"92",1,92,"homogenous",0.709,1,"1","r"
"93",1,93,"absent",1.34,1,"1","r"
"94",1,94,"heterogenous",1.104,1,"1","r"
"95",1,95,"absent",1.223,1,"1","r"
"96",1,96,"absent",1.304,1,"1","r"
"97",2,1,"homogenous",2.324,0,"1","f"
"98",2,2,"homogenous",1.98,1,"1","f"
"99",2,3,"absent",10.746,1,"1","f"
"100",2,4,"heterogenous",9.477,1,"1","f"
"101",2,5,"heterogenous",7.016,1,"1","f"
"102",2,6,"absent",13.383,0,"1","f"
"103",2,7,"homogenous",1.871,1,"1","f"
"104",2,8,"heterogenous",16.508,0,"1","f"
"105",2,9,"absent",18.368,1,"1","f"
"106",2,10,"absent",19.315,1,"1","f"
"107",2,11,"homogenous",1.485,1,"1","f"
"108",2,12,"heterogenous",16.264,0,"1","f"
"109",2,13,"heterogenous",12.697,1,"1","f"
"110",2,14,"heterogenous",21.98,0,"1","f"
"111",2,15,"absent",27.831,1,"1","f"
"112",2,16,"homogenous",1.441,1,"1","f"
"113",2,17,"absent",22.427,1,"1","f"
"114",2,18,"absent",18.689,1,"1","f"
"115",2,19,"absent",12.146,1,"1","f"
"116",2,20,"homogenous",1.403,1,"1","f"
"117",2,21,"absent",9.598,1,"1","f"
"118",2,22,"absent",12.882,1,"1","f"
"119",2,23,"absent",18.28,1,"1","f"
"120",2,24,"absent",13.038,1,"1","f"
"121",2,25,"homogenous",1.46,1,"1","f"
"122",2,26,"heterogenous",9.443,1,"1","f"
"123",2,27,"homogenous",1.259,1,"1","f"
"124",2,28,"heterogenous",21.038,0,"1","f"
"125",2,29,"homogenous",1.504,1,"1","f"
"126",2,30,"absent",15.269,1,"1","f"
"127",2,31,"absent",16.527,1,"1","f"
"128",2,32,"absent",13.807,1,"1","f"
"129",2,33,"absent",15.004,1,"1","f"
"130",2,34,"absent",10.167,1,"1","f"
"131",2,35,"heterogenous",18.096,0,"1","f"
"132",2,36,"absent",13.676,1,"1","f"
"133",2,37,"homogenous",1.641,1,"1","f"
"134",2,38,"homogenous",1.299,1,"1","f"
"135",2,39,"heterogenous",14.646,1,"1","f"
"136",2,40,"absent",5.303,1,"1","f"
"137",2,41,"absent",14.167,1,"1","f"
"138",2,42,"heterogenous",9.865,0,"1","f"
"139",2,43,"absent",15.048,1,"1","f"
"140",2,44,"homogenous",1.771,1,"1","f"
"141",2,45,"absent",13.525,1,"1","f"
"142",2,46,"absent",18.33,1,"1","f"
"143",2,47,"homogenous",1.374,1,"1","f"
"144",2,48,"heterogenous",19.157,0,"1","f"
"145",2,49,"homogenous",1.611,1,"1","f"
"146",2,50,"absent",23.064,0,"1","f"
"147",2,51,"absent",14.739,1,"1","f"
"148",2,52,"heterogenous",12.035,1,"1","f"
"149",2,53,"absent",16.956,1,"1","f"
"150",2,54,"absent",14.327,1,"1","f"
"151",2,55,"absent",15.167,1,"1","f"
"152",2,56,"absent",11.559,1,"1","f"
"153",2,57,"absent",13.459,1,"1","f"
"154",2,58,"homogenous",1.411,1,"1","f"
"155",2,59,"heterogenous",4.71,1,"1","f"
"156",2,60,"absent",14.435,1,"1","f"
"157",2,61,"heterogenous",9.114,0,"1","f"
"158",2,62,"absent",17.814,1,"1","f"
"159",2,63,"heterogenous",5.425,1,"1","f"
"160",2,64,"absent",21.86,1,"1","f"
"161",2,65,"absent",10.527,1,"1","f"
"162",2,66,"absent",11.396,1,"1","f"
"163",2,67,"absent",11.523,1,"1","f"
"164",2,68,"absent",10.681,1,"1","f"
"165",2,69,"homogenous",1.072,1,"1","f"
"166",2,70,"heterogenous",9.109,1,"1","f"
"167",2,71,"homogenous",1.119,1,"1","f"
"168",2,72,"absent",8.832,1,"1","f"
"169",2,73,"absent",10.222,1,"1","f"
"170",2,74,"absent",10.716,1,"1","f"
"171",2,75,"absent",12.369,1,"1","f"
"172",2,76,"absent",10.664,1,"1","f"
"173",2,77,"homogenous",1.114,1,"1","f"
"174",2,79,"heterogenous",12.908,0,"1","f"
"175",2,80,"absent",15.337,1,"1","f"
"176",2,81,"heterogenous",10.447,0,"1","f"
"177",2,82,"absent",11.698,1,"1","f"
"178",2,83,"absent",7.952,1,"1","f"
"179",2,84,"heterogenous",13.309,0,"1","f"
"180",2,85,"absent",16.436,1,"1","f"
"181",2,86,"homogenous",1.011,1,"1","f"
"182",2,87,"homogenous",1.077,1,"1","f"
"183",2,88,"heterogenous",11.3,1,"1","f"
"184",2,89,"homogenous",0.971,1,"1","f"
"185",2,90,"heterogenous",11.44,0,"1","f"
"186",2,91,"absent",11.466,1,"1","f"
"187",2,92,"homogenous",0.904,1,"1","f"
"188",2,93,"homogenous",0.947,1,"1","f"
"189",2,94,"heterogenous",12.009,0,"1","f"
"190",2,95,"absent",12.662,1,"1","f"
"191",2,96,"heterogenous",5.383,1,"1","f"
"192",3,1,"heterogenous",15.196,1,"1","f"
"193",3,2,"absent",9.514,0,"1","f"
"194",3,3,"absent",4.305,0,"1","f"
"195",3,4,"homogenous",2.874,1,"1","f"
"196",3,5,"absent",27.732,1,"1","f"
"197",3,6,"homogenous",2.251,1,"1","f"
"198",3,7,"absent",28.347,1,"1","f"
"199",3,8,"heterogenous",16.408,1,"1","f"
"200",3,9,"heterogenous",12.896,1,"1","f"
"201",3,10,"heterogenous",17.883,1,"1","f"
"202",3,11,"homogenous",1.696,1,"1","f"
"203",3,12,"heterogenous",10.051,1,"1","f"
"204",3,13,"absent",2.849,0,"1","f"
"205",3,14,"homogenous",1.744,1,"1","f"
"206",3,15,"homogenous",1.176,1,"1","f"
"207",3,16,"absent",12.126,0,"1","f"
"208",3,17,"heterogenous",10.892,1,"1","f"
"209",3,18,"absent",18.063,1,"1","f"
"210",3,19,"absent",11.391,0,"1","f"
"211",3,20,"heterogenous",22.553,1,"1","f"
"212",3,21,"absent",15.247,0,"1","f"
"213",3,22,"absent",25.001,1,"1","f"
"214",3,23,"absent",11.061,1,"1","f"
"215",3,24,"absent",11.669,0,"1","f"
"216",3,25,"absent",20.073,1,"1","f"
"217",3,26,"absent",15.432,1,"1","f"
"218",3,27,"heterogenous",8.777,1,"1","f"
"219",3,28,"heterogenous",3.05,1,"1","f"
"220",3,29,"absent",19.1,0,"1","f"
"221",3,30,"absent",9.376,1,"1","f"
"222",3,31,"homogenous",2.093,1,"1","f"
"223",3,32,"absent",26.169,1,"1","f"
"224",3,33,"homogenous",1.415,1,"1","f"
"225",3,34,"absent",8.323,1,"1","f"
"226",3,35,"homogenous",1.225,1,"1","f"
"227",3,36,"absent",8.582,0,"1","f"
"228",3,37,"homogenous",1.214,1,"1","f"
"229",3,38,"absent",8.145,1,"1","f"
"230",3,39,"absent",11.084,1,"1","f"
"231",3,40,"absent",11.806,1,"1","f"
"232",3,41,"heterogenous",10.192,0,"1","f"
"233",3,42,"homogenous",1.137,1,"1","f"
"234",3,43,"homogenous",1.054,1,"1","f"
"235",3,44,"homogenous",1.673,1,"1","f"
"236",3,45,"absent",18.736,1,"1","f"
"237",3,46,"heterogenous",3.184,0,"1","f"
"238",3,47,"absent",11.963,0,"1","f"
"239",3,48,"heterogenous",6.824,0,"1","f"
"240",3,49,"absent",24.834,1,"1","f"
"241",3,50,"heterogenous",8.793,1,"1","f"
"242",3,51,"heterogenous",17.243,0,"1","f"
"243",3,52,"homogenous",1.06,1,"1","f"
"244",3,53,"absent",19.68,1,"1","f"
"245",3,54,"heterogenous",16.038,0,"1","f"
"246",3,55,"absent",7.649,1,"1","f"
"247",3,56,"absent",13.595,1,"1","f"
"248",3,57,"homogenous",1.073,1,"1","f"
"249",3,58,"homogenous",1.261,1,"1","f"
"250",3,59,"absent",15.959,0,"1","f"
"251",3,60,"absent",3.597,0,"1","f"
"252",3,61,"homogenous",0.978,1,"1","f"
"253",3,62,"absent",9.113,1,"1","f"
"254",3,63,"homogenous",0.925,1,"1","f"
"255",3,64,"absent",10.105,1,"1","f"
"256",3,65,"homogenous",0.985,1,"1","f"
"257",3,66,"absent",10.73,1,"1","f"
"258",3,67,"absent",13.152,1,"1","f"
"259",3,68,"heterogenous",25.482,0,"1","f"
"260",3,69,"absent",19.272,1,"1","f"
"261",3,70,"homogenous",1.071,1,"1","f"
"262",3,71,"heterogenous",15.318,0,"1","f"
"263",3,72,"absent",20.217,1,"1","f"
"264",3,73,"absent",27.287,1,"1","f"
"265",3,74,"absent",19.291,1,"1","f"
"266",3,75,"absent",25.129,1,"1","f"
"267",3,76,"absent",10.289,1,"1","f"
"268",3,77,"absent",20.186,1,"1","f"
"269",3,78,"heterogenous",16.278,0,"1","f"
"270",3,79,"homogenous",1.392,1,"1","f"
"271",3,80,"heterogenous",8.983,0,"1","f"
"272",3,81,"homogenous",1.198,1,"1","f"
"273",3,82,"heterogenous",19.552,0,"1","f"
"274",3,83,"homogenous",1.11,1,"1","f"
"275",3,84,"heterogenous",15.334,0,"1","f"
"276",3,85,"homogenous",1.092,1,"1","f"
"277",3,86,"absent",31.522,1,"1","f"
"278",3,87,"absent",24.339,1,"1","f"
"279",3,88,"absent",12.778,1,"1","f"
"280",3,89,"heterogenous",16.459,1,"1","f"
"281",3,90,"heterogenous",16.578,0,"1","f"
"282",3,91,"absent",0.529,0,"1","f"
"283",3,92,"absent",23.959,1,"1","f"
"284",3,93,"absent",18.683,1,"1","f"
"285",3,94,"absent",26.139,1,"1","f"
"286",3,95,"homogenous",1.385,1,"1","f"
"287",3,96,"heterogenous",15.253,1,"1","f"
"288",4,1,"absent",1.177,0,"1","r"
"289",4,2,"absent",1.391,0,"1","r"
"290",4,3,"homogenous",1.722,1,"1","r"
"291",4,4,"homogenous",1.209,1,"1","r"
"292",4,5,"absent",1.688,1,"1","r"
"293",4,6,"absent",1.161,0,"1","r"
"294",4,7,"heterogenous",2.232,1,"1","r"
"295",4,8,"heterogenous",2.209,0,"1","r"
"296",4,9,"absent",1.134,0,"1","r"
"297",4,10,"absent",1.819,0,"1","r"
"298",4,11,"homogenous",4.67,1,"1","r"
"299",4,12,"heterogenous",2.207,1,"1","r"
"300",4,13,"absent",1.942,0,"1","r"
"301",4,14,"absent",3.034,0,"1","r"
"302",4,15,"absent",1.613,0,"1","r"
"303",4,16,"heterogenous",2.288,1,"1","r"
"304",4,17,"absent",1.91,0,"1","r"
"305",4,18,"homogenous",5.629,1,"1","r"
"306",4,19,"homogenous",3.137,0,"1","r"
"307",4,20,"absent",1.946,0,"1","r"
"308",4,21,"absent",1.963,0,"1","r"
"309",4,22,"absent",3.132,0,"1","r"
"310",4,23,"homogenous",3.012,0,"1","r"
"311",4,24,"absent",2.405,0,"1","r"
"312",4,25,"homogenous",3.682,1,"1","r"
"313",4,26,"homogenous",1.448,1,"1","r"
"314",4,27,"heterogenous",2.353,1,"1","r"
"315",4,28,"homogenous",1.546,1,"1","r"
"316",4,29,"heterogenous",1.041,1,"1","r"
"317",4,30,"heterogenous",2.706,0,"1","r"
"318",4,31,"absent",0.8,0,"1","r"
"319",4,32,"absent",0.905,0,"1","r"
"320",4,33,"homogenous",2.414,0,"1","r"
"321",4,34,"absent",2.122,0,"1","r"
"322",4,35,"absent",2.38,0,"1","r"
"323",4,36,"absent",1.402,0,"1","r"
"324",4,37,"absent",1.543,1,"1","r"
"325",4,38,"absent",1.084,1,"1","r"
"326",4,39,"absent",0.747,0,"1","r"
"327",4,40,"heterogenous",2.674,1,"1","r"
"328",4,41,"heterogenous",2.019,1,"1","r"
"329",4,42,"absent",1.884,1,"1","r"
"330",4,43,"homogenous",1.641,1,"1","r"
"331",4,44,"homogenous",2.151,1,"1","r"
"332",4,45,"homogenous",1.609,1,"1","r"
"333",4,46,"homogenous",1.592,1,"1","r"
"334",4,47,"heterogenous",0.942,1,"1","r"
"335",4,48,"absent",1.55,0,"1","r"
"336",4,49,"absent",1.294,1,"1","r"
"337",4,50,"absent",1.447,0,"1","r"
"338",4,51,"absent",1.584,1,"1","r"
"339",4,52,"absent",0.943,0,"1","r"
"340",4,53,"heterogenous",2.006,0,"1","r"
"341",4,54,"absent",2.003,0,"1","r"
"342",4,55,"absent",0.953,0,"1","r"
"343",4,56,"absent",1.185,1,"1","r"
"344",4,57,"absent",0.953,0,"1","r"
"345",4,58,"absent",1.756,0,"1","r"
"346",4,59,"homogenous",0.853,1,"1","r"
"347",4,60,"heterogenous",1.45,1,"1","r"
"348",4,61,"heterogenous",1.371,1,"1","r"
"349",4,62,"homogenous",0.842,1,"1","r"
"350",4,63,"homogenous",0.796,1,"1","r"
"351",4,64,"homogenous",2.061,0,"1","r"
"352",4,65,"homogenous",2.079,1,"1","r"
"353",4,66,"heterogenous",1.325,1,"1","r"
"354",4,67,"absent",0.852,0,"1","r"
"355",4,68,"absent",0.814,0,"1","r"
"356",4,69,"absent",1.293,0,"1","r"
"357",4,70,"absent",2.238,0,"1","r"
"358",4,71,"absent",0.975,1,"1","r"
"359",4,72,"absent",1.067,0,"1","r"
"360",4,73,"homogenous",1.07,1,"1","r"
"361",4,74,"heterogenous",0.662,1,"1","r"
"362",4,75,"heterogenous",0.731,1,"1","r"
"363",4,76,"heterogenous",0.715,1,"1","r"
"364",4,77,"heterogenous",1.28,1,"1","r"
"365",4,78,"homogenous",0.723,1,"1","r"
"366",4,79,"absent",0.914,0,"1","r"
"367",4,80,"homogenous",0.609,1,"1","r"
"368",4,81,"absent",0.611,0,"1","r"
"369",4,82,"heterogenous",0.661,1,"1","r"
"370",4,83,"heterogenous",0.709,1,"1","r"
"371",4,84,"homogenous",1.202,1,"1","r"
"372",4,85,"heterogenous",0.684,1,"1","r"
"373",4,86,"heterogenous",0.616,1,"1","r"
"374",4,87,"absent",0.535,0,"1","r"
"375",4,88,"heterogenous",0.421,0,"1","r"
"376",4,89,"absent",1.271,1,"1","r"
"377",4,90,"homogenous",1.018,1,"1","r"
"378",4,91,"absent",1.309,0,"1","r"
"379",4,92,"absent",0.743,0,"1","r"
"380",4,93,"absent",0.891,1,"1","r"
"381",4,94,"absent",1.874,0,"1","r"
"382",4,95,"heterogenous",1.001,1,"1","r"
"383",4,96,"absent",1.235,0,"1","r"
"384",5,1,"absent",1.266,1,"1","f"
"385",5,2,"absent",0.921,1,"1","f"
"386",5,3,"homogenous",0.687,1,"1","f"
"387",5,4,"homogenous",0.642,1,"1","f"
"388",5,5,"homogenous",0.641,1,"1","f"
"389",5,6,"absent",0.848,1,"1","f"
"390",5,7,"absent",1.047,1,"1","f"
"391",5,8,"homogenous",0.626,1,"1","f"
"392",5,9,"heterogenous",1.805,1,"1","f"
"393",5,10,"absent",2.112,1,"1","f"
"394",5,11,"absent",2.267,1,"1","f"
"395",5,12,"absent",0.911,1,"1","f"
"396",5,13,"absent",1.089,1,"1","f"
"397",5,14,"absent",1.079,1,"1","f"
"398",5,15,"homogenous",0.552,1,"1","f"
"399",5,16,"absent",0.817,1,"1","f"
"400",5,17,"absent",0.688,1,"1","f"
"401",5,18,"homogenous",0.649,1,"1","f"
"402",5,19,"homogenous",0.606,1,"1","f"
"403",5,20,"heterogenous",0.802,0,"1","f"
"404",5,21,"absent",1.656,1,"1","f"
"405",5,22,"heterogenous",0.746,1,"1","f"
"406",5,23,"absent",0.811,1,"1","f"
"407",5,24,"homogenous",0.681,1,"1","f"
"408",5,25,"heterogenous",1.124,0,"1","f"
"409",5,26,"heterogenous",1.113,1,"1","f"
"410",5,27,"heterogenous",1.103,1,"1","f"
"411",5,28,"homogenous",0.648,1,"1","f"
"412",5,29,"homogenous",0.641,1,"1","f"
"413",5,30,"absent",3.052,1,"1","f"
"414",5,31,"absent",2.617,1,"1","f"
"415",5,32,"homogenous",0.674,1,"1","f"
"416",5,33,"heterogenous",0.766,1,"1","f"
"417",5,34,"absent",2.38,1,"1","f"
"418",5,35,"heterogenous",1.014,1,"1","f"
"419",5,36,"absent",2.678,1,"1","f"
"420",5,37,"absent",1.757,1,"1","f"
"421",5,38,"heterogenous",0.833,1,"1","f"
"422",5,39,"heterogenous",1.11,1,"1","f"
"423",5,40,"homogenous",0.601,1,"1","f"
"424",5,41,"absent",2.034,0,"1","f"
"425",5,42,"absent",2.169,1,"1","f"
"426",5,43,"absent",2.273,1,"1","f"
"427",5,44,"absent",1.104,1,"1","f"
"428",5,45,"absent",1.607,1,"1","f"
"429",5,46,"absent",1.322,1,"1","f"
"430",5,47,"absent",1.028,1,"1","f"
"431",5,48,"absent",1.344,1,"1","f"
"432",5,49,"heterogenous",0.809,0,"1","f"
"433",5,50,"absent",1.251,0,"1","f"
"434",5,51,"absent",1.482,0,"1","f"
"435",5,52,"absent",4.097,1,"1","f"
"436",5,53,"heterogenous",1.36,1,"1","f"
"437",5,54,"absent",4.23,1,"1","f"
"438",5,55,"absent",1.504,1,"1","f"
"439",5,56,"heterogenous",1.206,1,"1","f"
"440",5,57,"heterogenous",3.631,1,"1","f"
"441",5,58,"absent",1.984,1,"1","f"
"442",5,59,"homogenous",0.752,1,"1","f"
"443",5,60,"heterogenous",1.696,1,"1","f"
"444",5,61,"absent",2.434,1,"1","f"
"445",5,62,"homogenous",0.865,1,"1","f"
"446",5,63,"homogenous",0.674,1,"1","f"
"447",5,64,"heterogenous",0.862,1,"1","f"
"448",5,65,"heterogenous",1.392,0,"1","f"
"449",5,66,"absent",2.921,1,"1","f"
"450",5,67,"homogenous",0.768,1,"1","f"
"451",5,68,"absent",0.944,1,"1","f"
"452",5,69,"homogenous",0.666,1,"1","f"
"453",5,70,"heterogenous",0.775,0,"1","f"
"454",5,71,"homogenous",0.67,1,"1","f"
"455",5,72,"heterogenous",1.389,1,"1","f"
"456",5,73,"absent",2.329,1,"1","f"
"457",5,74,"heterogenous",1.488,1,"1","f"
"458",5,75,"absent",2.456,1,"1","f"
"459",5,76,"homogenous",0.902,1,"1","f"
"460",5,77,"heterogenous",0.846,1,"1","f"
"461",5,78,"heterogenous",1.429,1,"1","f"
"462",5,79,"absent",1.821,1,"1","f"
"463",5,80,"absent",1.514,1,"1","f"
"464",5,81,"heterogenous",1.303,1,"1","f"
"465",5,82,"absent",2.328,1,"1","f"
"466",5,83,"homogenous",0.705,1,"1","f"
"467",5,84,"homogenous",0.681,1,"1","f"
"468",5,85,"absent",2.57,1,"1","f"
"469",5,86,"absent",0.937,1,"1","f"
"470",5,87,"absent",1.062,1,"1","f"
"471",5,88,"homogenous",0.622,1,"1","f"
"472",5,89,"absent",0.842,1,"1","f"
"473",5,90,"heterogenous",1.154,1,"1","f"
"474",5,91,"homogenous",0.688,1,"1","f"
"475",5,92,"absent",1.497,1,"1","f"
"476",5,93,"homogenous",0.616,1,"1","f"
"477",5,94,"absent",1.635,1,"1","f"
"478",5,95,"absent",0.872,1,"1","f"
"479",5,96,"absent",0.663,1,"1","f"
"480",6,1,"absent",2.37,1,"1","r"
"481",6,2,"homogenous",0.64,1,"1","r"
"482",6,3,"heterogenous",1.272,1,"1","r"
"483",6,4,"absent",5.405,1,"1","r"
"484",6,5,"heterogenous",3.697,0,"1","r"
"485",6,6,"heterogenous",5.2,0,"1","r"
"486",6,7,"heterogenous",8.18,0,"1","r"
"487",6,8,"homogenous",0.792,1,"1","r"
"488",6,9,"absent",7.109,1,"1","r"
"489",6,10,"heterogenous",3.075,1,"1","r"
"490",6,11,"absent",8.907,1,"1","r"
"491",6,12,"homogenous",0.817,1,"1","r"
"492",6,13,"absent",9.694,1,"1","r"
"493",6,14,"absent",9.404,1,"1","r"
"494",6,15,"heterogenous",4.151,1,"1","r"
"495",6,16,"absent",7.493,1,"1","r"
"496",6,17,"absent",10.301,1,"1","r"
"497",6,18,"absent",7.04,1,"1","r"
"498",6,19,"heterogenous",8.512,0,"1","r"
"499",6,20,"heterogenous",9.715,0,"1","r"
"500",6,21,"absent",13.622,1,"1","r"
"501",6,22,"homogenous",0.771,1,"1","r"
"502",6,23,"absent",9.666,1,"1","r"
"503",6,24,"absent",12.233,1,"1","r"
"504",6,25,"absent",11.616,1,"1","r"
"505",6,26,"homogenous",0.877,1,"1","r"
"506",6,27,"homogenous",0.799,1,"1","r"
"507",6,28,"homogenous",0.778,1,"1","r"
"508",6,29,"heterogenous",9.81,0,"1","r"
"509",6,30,"heterogenous",6.395,1,"1","r"
"510",6,31,"absent",10.327,0,"1","r"
"511",6,32,"homogenous",0.759,1,"1","r"
"512",6,33,"absent",11.225,1,"1","r"
"513",6,34,"absent",11.802,1,"1","r"
"514",6,35,"absent",9.495,1,"1","r"
"515",6,36,"heterogenous",6.485,1,"1","r"
"516",6,37,"absent",10.922,1,"1","r"
"517",6,38,"homogenous",1.009,1,"1","r"
"518",6,39,"heterogenous",3.622,1,"1","r"
"519",6,40,"homogenous",0.745,1,"1","r"
"520",6,41,"absent",6.193,1,"1","r"
"521",6,42,"homogenous",0.732,1,"1","r"
"522",6,43,"homogenous",0.708,1,"1","r"
"523",6,44,"absent",5.674,1,"1","r"
"524",6,45,"homogenous",0.793,1,"1","r"
"525",6,46,"heterogenous",6,1,"1","r"
"526",6,47,"heterogenous",9.171,0,"1","r"
"527",6,48,"absent",13.837,1,"1","r"
"528",6,49,"absent",13.355,0,"1","r"
"529",6,50,"absent",7.665,1,"1","r"
"530",6,51,"absent",14.717,1,"1","r"
"531",6,52,"homogenous",0.782,1,"1","r"
"532",6,53,"absent",11.252,1,"1","r"
"533",6,54,"absent",10.773,1,"1","r"
"534",6,55,"absent",11.811,1,"1","r"
"535",6,56,"absent",9.809,1,"1","r"
"536",6,57,"absent",9.255,1,"1","r"
"537",6,58,"heterogenous",7.484,0,"1","r"
"538",6,59,"absent",9.964,1,"1","r"
"539",6,60,"heterogenous",2.784,1,"1","r"
"540",6,61,"absent",9.821,1,"1","r"
"541",6,62,"absent",10.024,1,"1","r"
"542",6,63,"heterogenous",4.873,1,"1","r"
"543",6,64,"absent",6.813,1,"1","r"
"544",6,65,"homogenous",0.904,1,"1","r"
"545",6,66,"homogenous",0.769,1,"1","r"
"546",6,67,"heterogenous",1.255,1,"1","r"
"547",6,68,"absent",5.602,1,"1","r"
"548",6,69,"absent",9.286,1,"1","r"
"549",6,70,"homogenous",0.784,1,"1","r"
"550",6,71,"absent",8.335,1,"1","r"
"551",6,72,"heterogenous",8.893,0,"1","r"
"552",6,73,"homogenous",0.79,1,"1","r"
"553",6,74,"homogenous",0.742,1,"1","r"
"554",6,75,"heterogenous",2.349,0,"1","r"
"555",6,76,"absent",13.179,1,"1","r"
"556",6,77,"absent",5.686,1,"1","r"
"557",6,78,"homogenous",0.831,1,"1","r"
"558",6,79,"absent",5.311,1,"1","r"
"559",6,80,"absent",8.564,1,"1","r"
"560",6,81,"homogenous",0.689,1,"1","r"
"561",6,82,"heterogenous",6.763,1,"1","r"
"562",6,83,"absent",9.683,1,"1","r"
"563",6,84,"homogenous",0.679,1,"1","r"
"564",6,85,"absent",7.275,1,"1","r"
"565",6,86,"absent",6.575,1,"1","r"
"566",6,87,"homogenous",0.604,1,"1","r"
"567",6,88,"homogenous",0.773,1,"1","r"
"568",6,89,"heterogenous",10.573,0,"1","r"
"569",6,90,"heterogenous",9.691,0,"1","r"
"570",6,91,"absent",10.345,1,"1","r"
"571",6,92,"absent",12.987,1,"1","r"
"572",6,93,"heterogenous",11.512,0,"1","r"
"573",6,94,"absent",9.969,1,"1","r"
"574",6,95,"absent",5.511,1,"1","r"
"575",6,96,"absent",12.914,1,"1","r"
"576",7,1,"absent",1.452,1,"1","r"
"577",7,2,"absent",2.053,1,"1","r"
"578",7,3,"heterogenous",2.133,0,"1","r"
"579",7,4,"absent",2.08,1,"1","r"
"580",7,5,"absent",1.909,1,"1","r"
"581",7,6,"absent",3.172,1,"1","r"
"582",7,7,"absent",1.711,1,"1","r"
"583",7,8,"absent",2.279,1,"1","r"
"584",7,9,"homogenous",0.909,1,"1","r"
"585",7,10,"homogenous",1.011,1,"1","r"
"586",7,11,"absent",2.131,1,"1","r"
"587",7,12,"absent",1.11,1,"1","r"
"588",7,13,"absent",0.72,1,"1","r"
"589",7,14,"homogenous",0.771,1,"1","r"
"590",7,15,"absent",1.569,1,"1","r"
"591",7,16,"absent",1.133,1,"1","r"
"592",7,17,"absent",0.991,1,"1","r"
"593",7,18,"absent",0.924,1,"1","r"
"594",7,19,"absent",0.76,1,"1","r"
"595",7,20,"heterogenous",0.763,0,"1","r"
"596",7,21,"homogenous",0.831,1,"1","r"
"597",7,22,"heterogenous",2.21,0,"1","r"
"598",7,23,"absent",1.141,1,"1","r"
"599",7,24,"homogenous",0.852,1,"1","r"
"600",7,25,"homogenous",0.866,1,"1","r"
"601",7,26,"heterogenous",1.601,0,"1","r"
"602",7,27,"absent",2.421,1,"1","r"
"603",7,28,"absent",1.181,1,"1","r"
"604",7,29,"homogenous",1.069,1,"1","r"
"605",7,30,"homogenous",0.802,1,"1","r"
"606",7,31,"absent",1.309,1,"1","r"
"607",7,32,"absent",1.2,1,"1","r"
"608",7,33,"homogenous",0.754,1,"1","r"
"609",7,34,"absent",0.881,1,"1","r"
"610",7,35,"absent",2.245,1,"1","r"
"611",7,36,"heterogenous",0.783,0,"1","r"
"612",7,37,"absent",2.347,1,"1","r"
"613",7,38,"heterogenous",1.034,0,"1","r"
"614",7,39,"absent",2.88,1,"1","r"
"615",7,40,"absent",1.559,1,"1","r"
"616",7,41,"absent",1.791,1,"1","r"
"617",7,42,"heterogenous",2.659,0,"1","r"
"618",7,43,"heterogenous",2.24,0,"1","r"
"619",7,44,"heterogenous",5.568,0,"1","r"
"620",7,45,"heterogenous",5.272,0,"1","r"
"621",7,46,"homogenous",0.985,1,"1","r"
"622",7,47,"homogenous",0.835,1,"1","r"
"623",7,48,"heterogenous",1.664,0,"1","r"
"624",7,49,"absent",3.872,1,"1","r"
"625",7,50,"absent",3.17,1,"1","r"
"626",7,51,"absent",2.904,1,"1","r"
"627",7,52,"homogenous",0.93,1,"1","r"
"628",7,53,"homogenous",0.671,1,"1","r"
"629",7,54,"homogenous",0.671,1,"1","r"
"630",7,55,"heterogenous",4.395,0,"1","r"
"631",7,56,"heterogenous",5.453,0,"1","r"
"632",7,57,"absent",3.441,0,"1","r"
"633",7,58,"homogenous",0.862,1,"1","r"
"634",7,59,"heterogenous",1.218,0,"1","r"
"635",7,60,"absent",2.653,0,"1","r"
"636",7,61,"absent",0.972,1,"1","r"
"637",7,62,"absent",1.222,1,"1","r"
"638",7,63,"homogenous",0.816,1,"1","r"
"639",7,64,"absent",0.758,1,"1","r"
"640",7,65,"homogenous",0.765,1,"1","r"
"641",7,66,"absent",2.25,1,"1","r"
"642",7,67,"absent",1.461,1,"1","r"
"643",7,68,"absent",2.713,1,"1","r"
"644",7,69,"absent",2.809,1,"1","r"
"645",7,70,"absent",2.87,1,"1","r"
"646",7,71,"heterogenous",1.403,0,"1","r"
"647",7,72,"heterogenous",1.644,0,"1","r"
"648",7,73,"homogenous",0.862,1,"1","r"
"649",7,74,"homogenous",0.818,0,"1","r"
"650",7,75,"heterogenous",3.783,0,"1","r"
"651",7,76,"absent",1.39,1,"1","r"
"652",7,77,"absent",0.993,1,"1","r"
"653",7,78,"heterogenous",0.984,0,"1","r"
"654",7,79,"heterogenous",2.321,0,"1","r"
"655",7,80,"heterogenous",2.777,0,"1","r"
"656",7,81,"homogenous",0.933,1,"1","r"
"657",7,82,"homogenous",1.002,1,"1","r"
"658",7,83,"homogenous",0.711,1,"1","r"
"659",7,84,"absent",7.627,0,"1","r"
"660",7,85,"heterogenous",2.938,0,"1","r"
"661",7,86,"absent",0.937,1,"1","r"
"662",7,87,"absent",5.174,1,"1","r"
"663",7,88,"heterogenous",1.489,0,"1","r"
"664",7,89,"heterogenous",4.649,0,"1","r"
"665",7,90,"homogenous",0.885,1,"1","r"
"666",7,91,"absent",1.185,1,"1","r"
"667",7,92,"heterogenous",0.948,0,"1","r"
"668",7,93,"absent",1.549,1,"1","r"
"669",7,94,"homogenous",1.803,1,"1","r"
"670",7,95,"absent",1.129,1,"1","r"
"671",7,96,"absent",1.078,1,"1","r"
"672",8,1,"heterogenous",1.259,0,"1","f"
"673",8,2,"homogenous",1.083,0,"1","f"
"674",8,3,"homogenous",1.913,1,"1","f"
"675",8,4,"homogenous",0.98,1,"1","f"
"676",8,5,"absent",1.643,0,"1","f"
"677",8,6,"homogenous",2.071,1,"1","f"
"678",8,7,"heterogenous",1.341,1,"1","f"
"679",8,8,"homogenous",0.812,0,"1","f"
"680",8,9,"heterogenous",1.696,0,"1","f"
"681",8,10,"heterogenous",1.256,0,"1","f"
"682",8,11,"absent",2.105,1,"1","f"
"683",8,12,"absent",1.663,0,"1","f"
"684",8,13,"absent",1.303,0,"1","f"
"685",8,14,"heterogenous",0.874,1,"1","f"
"686",8,15,"homogenous",1.152,1,"1","f"
"687",8,16,"absent",1.476,1,"1","f"
"688",8,17,"heterogenous",1.467,0,"1","f"
"689",8,18,"absent",1.232,0,"1","f"
"690",8,19,"absent",1.405,0,"1","f"
"691",8,20,"absent",1.303,1,"1","f"
"692",8,21,"absent",1.736,1,"1","f"
"693",8,22,"heterogenous",1.351,0,"1","f"
"694",8,23,"absent",1.448,0,"1","f"
"695",8,24,"heterogenous",1.295,0,"1","f"
"696",8,25,"absent",2.005,1,"1","f"
"697",8,26,"homogenous",1.585,0,"1","f"
"698",8,27,"absent",2.345,0,"1","f"
"699",8,28,"absent",4.237,1,"1","f"
"700",8,29,"absent",1.401,1,"1","f"
"701",8,30,"absent",1.555,0,"1","f"
"702",8,31,"homogenous",1.7,1,"1","f"
"703",8,32,"absent",1.474,0,"1","f"
"704",8,33,"absent",1.7,0,"1","f"
"705",8,34,"absent",2.162,1,"1","f"
"706",8,35,"absent",1.536,1,"1","f"
"707",8,36,"absent",1.136,0,"1","f"
"708",8,37,"heterogenous",1.929,1,"1","f"
"709",8,38,"heterogenous",1.361,0,"1","f"
"710",8,39,"homogenous",2.561,0,"1","f"
"711",8,40,"absent",1.168,1,"1","f"
"712",8,41,"homogenous",1.499,1,"1","f"
"713",8,42,"absent",1.254,0,"1","f"
"714",8,43,"heterogenous",1.262,0,"1","f"
"715",8,44,"heterogenous",2.738,1,"1","f"
"716",8,45,"homogenous",2.074,0,"1","f"
"717",8,46,"homogenous",1.741,1,"1","f"
"718",8,47,"homogenous",0.783,1,"1","f"
"719",8,48,"absent",1.7,1,"1","f"
"720",8,49,"absent",1.745,1,"1","f"
"721",8,50,"heterogenous",1.753,0,"1","f"
"722",8,51,"absent",1.221,0,"1","f"
"723",8,52,"heterogenous",1.336,1,"1","f"
"724",8,53,"homogenous",1.17,1,"1","f"
"725",8,54,"heterogenous",1.665,0,"1","f"
"726",8,55,"absent",3.255,0,"1","f"
"727",8,56,"absent",1.778,1,"1","f"
"728",8,58,"homogenous",1.672,0,"1","f"
"729",8,59,"absent",1.835,1,"1","f"
"730",8,60,"homogenous",1.445,1,"1","f"
"731",8,61,"absent",1.61,1,"1","f"
"732",8,62,"absent",2.439,1,"1","f"
"733",8,63,"absent",1.621,0,"1","f"
"734",8,64,"absent",1.377,1,"1","f"
"735",8,65,"absent",1.303,1,"1","f"
"736",8,66,"absent",1.204,1,"1","f"
"737",8,67,"absent",1.035,1,"1","f"
"738",8,68,"heterogenous",1.391,0,"1","f"
"739",8,69,"absent",1.32,0,"1","f"
"740",8,70,"absent",1.753,1,"1","f"
"741",8,71,"heterogenous",1.126,0,"1","f"
"742",8,72,"heterogenous",1.011,1,"1","f"
"743",8,73,"heterogenous",1.023,1,"1","f"
"744",8,74,"homogenous",0.888,1,"1","f"
"745",8,75,"absent",2.574,1,"1","f"
"746",8,76,"homogenous",1.445,0,"1","f"
"747",8,77,"absent",2.686,0,"1","f"
"748",8,78,"homogenous",1.413,1,"1","f"
"749",8,79,"absent",1.652,0,"1","f"
"750",8,80,"homogenous",0.837,1,"1","f"
"751",8,81,"homogenous",0.815,1,"1","f"
"752",8,82,"heterogenous",2.119,0,"1","f"
"753",8,83,"absent",2.515,1,"1","f"
"754",8,84,"heterogenous",1.712,0,"1","f"
"755",8,85,"heterogenous",1.204,1,"1","f"
"756",8,86,"absent",0.838,0,"1","f"
"757",8,87,"absent",1.328,0,"1","f"
"758",8,88,"heterogenous",1.305,0,"1","f"
"759",8,89,"homogenous",1.54,1,"1","f"
"760",8,90,"absent",1,0,"1","f"
"761",8,91,"homogenous",0.947,1,"1","f"
"762",8,92,"absent",1.637,1,"1","f"
"763",8,93,"absent",1.787,1,"1","f"
"764",8,94,"heterogenous",1.531,0,"1","f"
"765",8,95,"absent",1.247,0,"1","f"
"766",8,96,"absent",1.204,1,"1","f"
"767",9,1,"absent",1.318,1,"1","f"
"768",9,2,"absent",2.957,1,"1","f"
"769",9,3,"absent",2.375,1,"1","f"
"770",9,4,"heterogenous",0.97,1,"1","f"
"771",9,5,"heterogenous",1.28,0,"1","f"
"772",9,6,"absent",2.702,1,"1","f"
"773",9,7,"heterogenous",2.904,0,"1","f"
"774",9,8,"absent",3.04,0,"1","f"
"775",9,9,"heterogenous",4.291,1,"1","f"
"776",9,10,"absent",3.03,1,"1","f"
"777",9,11,"absent",4.502,1,"1","f"
"778",9,12,"homogenous",0.985,1,"1","f"
"779",9,14,"homogenous",1.008,1,"1","f"
"780",9,15,"absent",4.485,1,"1","f"
"781",9,16,"absent",5.172,1,"1","f"
"782",9,17,"absent",4.5,1,"1","f"
"783",9,18,"homogenous",0.82,1,"1","f"
"784",9,19,"absent",1.491,0,"1","f"
"785",9,20,"heterogenous",2.47,0,"1","f"
"786",9,21,"absent",1.892,1,"1","f"
"787",9,22,"absent",2.426,1,"1","f"
"788",9,23,"absent",3.289,1,"1","f"
"789",9,24,"absent",2.243,1,"1","f"
"790",9,25,"homogenous",0.806,1,"1","f"
"791",9,26,"absent",2.593,0,"1","f"
"792",9,27,"homogenous",0.928,1,"1","f"
"793",9,28,"homogenous",0.704,1,"1","f"
"794",9,29,"heterogenous",2.925,0,"1","f"
"795",9,30,"heterogenous",4.252,1,"1","f"
"796",9,31,"homogenous",0.719,1,"1","f"
"797",9,32,"heterogenous",1.294,1,"1","f"
"798",9,33,"heterogenous",2.329,1,"1","f"
"799",9,34,"absent",3.069,0,"1","f"
"800",9,35,"homogenous",0.809,1,"1","f"
"801",9,36,"absent",2.47,0,"1","f"
"802",9,37,"absent",2.341,1,"1","f"
"803",9,38,"absent",2.229,1,"1","f"
"804",9,39,"homogenous",0.746,1,"1","f"
"805",9,40,"absent",1.698,0,"1","f"
"806",9,41,"heterogenous",2.232,0,"1","f"
"807",9,42,"homogenous",1.07,1,"1","f"
"808",9,43,"absent",3.344,1,"1","f"
"809",9,44,"absent",3.752,1,"1","f"
"810",9,45,"absent",2.929,1,"1","f"
"811",9,46,"homogenous",0.752,1,"1","f"
"812",9,47,"homogenous",0.838,1,"1","f"
"813",9,48,"absent",2.68,1,"1","f"
"814",9,49,"homogenous",0.743,1,"1","f"
"815",9,50,"heterogenous",1.225,1,"1","f"
"816",9,51,"absent",5.421,1,"1","f"
"817",9,52,"absent",3.294,1,"1","f"
"818",9,53,"homogenous",0.673,1,"1","f"
"819",9,54,"homogenous",0.673,1,"1","f"
"820",9,55,"absent",4.231,1,"1","f"
"821",9,56,"absent",2.752,1,"1","f"
"822",9,57,"absent",3.673,1,"1","f"
"823",9,58,"homogenous",0.624,1,"1","f"
"824",9,59,"absent",3.465,1,"1","f"
"825",9,60,"homogenous",0.839,1,"1","f"
"826",9,61,"absent",3.16,0,"1","f"
"827",9,62,"absent",3.032,1,"1","f"
"828",9,63,"homogenous",0.662,1,"1","f"
"829",9,64,"absent",2.625,1,"1","f"
"830",9,65,"absent",3.954,0,"1","f"
"831",9,66,"heterogenous",1.175,1,"1","f"
"832",9,67,"heterogenous",2.18,1,"1","f"
"833",9,68,"homogenous",0.88,1,"1","f"
"834",9,69,"homogenous",0.822,1,"1","f"
"835",9,70,"heterogenous",2.915,0,"1","f"
"836",9,71,"heterogenous",1.044,1,"1","f"
"837",9,72,"absent",4.093,1,"1","f"
"838",9,73,"heterogenous",2.488,1,"1","f"
"839",9,74,"heterogenous",4.461,0,"1","f"
"840",9,75,"absent",3.604,1,"1","f"
"841",9,76,"heterogenous",3.626,0,"1","f"
"842",9,77,"homogenous",0.692,1,"1","f"
"843",9,78,"absent",1.407,0,"1","f"
"844",9,79,"heterogenous",3.058,0,"1","f"
"845",9,80,"heterogenous",0.823,1,"1","f"
"846",9,81,"homogenous",0.624,1,"1","f"
"847",9,82,"absent",2.854,0,"1","f"
"848",9,83,"absent",1.341,0,"1","f"
"849",9,84,"heterogenous",2.007,1,"1","f"
"850",9,85,"absent",2.855,1,"1","f"
"851",9,86,"heterogenous",3.692,0,"1","f"
"852",9,87,"absent",4.014,0,"1","f"
"853",9,88,"heterogenous",1.106,1,"1","f"
"854",9,89,"absent",3.693,1,"1","f"
"855",9,90,"absent",7.169,0,"1","f"
"856",9,91,"heterogenous",1.398,1,"1","f"
"857",9,92,"absent",4.172,1,"1","f"
"858",9,93,"homogenous",0.769,1,"1","f"
"859",9,94,"homogenous",0.695,1,"1","f"
"860",9,95,"absent",2.442,0,"1","f"
"861",9,96,"absent",1.982,0,"1","f"
"862",10,1,"absent",4.815,1,"1","r"
"863",10,2,"heterogenous",2.243,0,"1","r"
"864",10,3,"heterogenous",3.772,1,"1","r"
"865",10,4,"absent",3.277,1,"1","r"
"866",10,5,"absent",4.176,1,"1","r"
"867",10,6,"heterogenous",3.441,0,"1","r"
"868",10,7,"absent",4.434,0,"1","r"
"869",10,8,"absent",5.112,1,"1","r"
"870",10,9,"heterogenous",3.806,0,"1","r"
"871",10,10,"absent",3.94,0,"1","r"
"872",10,11,"absent",4.575,1,"1","r"
"873",10,12,"heterogenous",2.301,1,"1","r"
"874",10,13,"absent",2.932,1,"1","r"
"875",10,14,"homogenous",3.647,1,"1","r"
"876",10,15,"absent",2.377,0,"1","r"
"877",10,16,"absent",2.349,0,"1","r"
"878",10,17,"absent",2.232,1,"1","r"
"879",10,18,"homogenous",2.261,1,"1","r"
"880",10,19,"heterogenous",4.283,0,"1","r"
"881",10,20,"heterogenous",6.936,0,"1","r"
"882",10,21,"homogenous",7.367,1,"1","r"
"883",10,22,"absent",6.48,1,"1","r"
"884",10,23,"absent",3.686,1,"1","r"
"885",10,24,"absent",4.563,1,"1","r"
"886",10,25,"heterogenous",4.142,1,"1","r"
"887",10,26,"absent",6.692,0,"1","r"
"888",10,27,"absent",3.111,1,"1","r"
"889",10,28,"homogenous",2.119,1,"1","r"
"890",10,29,"absent",6.962,1,"1","r"
"891",10,30,"absent",8.705,1,"1","r"
"892",10,31,"heterogenous",4.013,0,"1","r"
"893",10,32,"absent",5.77,1,"1","r"
"894",10,33,"heterogenous",2.935,1,"1","r"
"895",10,34,"heterogenous",5.772,0,"1","r"
"896",10,35,"homogenous",4.358,1,"1","r"
"897",10,36,"absent",2.613,0,"1","r"
"898",10,37,"absent",5.423,1,"1","r"
"899",10,38,"homogenous",1.49,1,"1","r"
"900",10,39,"absent",6.045,1,"1","r"
"901",10,40,"absent",6.243,1,"1","r"
"902",10,41,"heterogenous",3.201,1,"1","r"
"903",10,42,"homogenous",2.008,1,"1","r"
"904",10,43,"absent",4.343,0,"1","r"
"905",10,44,"homogenous",1.022,1,"1","r"
"906",10,45,"absent",4.842,0,"1","r"
"907",10,46,"absent",4.034,1,"1","r"
"908",10,48,"absent",6.43,1,"1","r"
"909",10,49,"absent",5.455,1,"1","r"
"910",10,50,"absent",5.244,0,"1","r"
"911",10,51,"homogenous",1.256,1,"1","r"
"912",10,52,"absent",5.132,1,"1","r"
"913",10,53,"heterogenous",5.401,0,"1","r"
"914",10,54,"homogenous",0.968,1,"1","r"
"915",10,55,"absent",6.476,0,"1","r"
"916",10,56,"homogenous",1.646,1,"1","r"
"917",10,57,"homogenous",1.07,1,"1","r"
"918",10,58,"absent",2.122,1,"1","r"
"919",10,59,"homogenous",1.285,1,"1","r"
"920",10,60,"homogenous",1.243,1,"1","r"
"921",10,61,"heterogenous",4.518,0,"1","r"
"922",10,62,"heterogenous",6.446,0,"1","r"
"923",10,63,"absent",10.161,1,"1","r"
"924",10,64,"heterogenous",6.746,0,"1","r"
"925",10,65,"homogenous",1.005,1,"1","r"
"926",10,66,"homogenous",0.933,1,"1","r"
"927",10,67,"absent",11.949,1,"1","r"
"928",10,68,"absent",8.319,1,"1","r"
"929",10,69,"absent",5.794,0,"1","r"
"930",10,70,"absent",5.716,1,"1","r"
"931",10,71,"absent",7.844,0,"1","r"
"932",10,72,"absent",6.806,1,"1","r"
"933",10,73,"homogenous",0.976,1,"1","r"
"934",10,74,"absent",4.756,1,"1","r"
"935",10,75,"heterogenous",4.815,0,"1","r"
"936",10,76,"heterogenous",7.092,1,"1","r"
"937",10,77,"absent",8.279,1,"1","r"
"938",10,78,"heterogenous",6.426,0,"1","r"
"939",10,79,"homogenous",0.914,1,"1","r"
"940",10,80,"heterogenous",6.193,0,"1","r"
"941",10,81,"absent",9.37,1,"1","r"
"942",10,82,"heterogenous",7.854,0,"1","r"
"943",10,83,"homogenous",1.982,1,"1","r"
"944",10,84,"homogenous",0.962,1,"1","r"
"945",10,85,"heterogenous",5.761,1,"1","r"
"946",10,86,"homogenous",0.992,1,"1","r"
"947",10,87,"homogenous",0.716,1,"1","r"
"948",10,88,"homogenous",0.849,1,"1","r"
"949",10,89,"absent",7.495,0,"1","r"
"950",10,90,"heterogenous",3.968,0,"1","r"
"951",10,91,"heterogenous",3.246,1,"1","r"
"952",10,92,"absent",9.567,1,"1","r"
"953",10,93,"homogenous",0.9,1,"1","r"
"954",10,94,"absent",8.396,1,"1","r"
"955",10,95,"absent",7.342,1,"1","r"
"956",10,96,"absent",7.814,1,"1","r"
"957",11,1,"absent",23.958,1,"1","f"
"958",11,2,"heterogenous",8.978,1,"1","f"
"959",11,3,"absent",23.72,1,"1","f"
"960",11,4,"homogenous",1.667,1,"1","f"
"961",11,5,"absent",31.596,1,"1","f"
"962",11,6,"homogenous",1.768,1,"1","f"
"963",11,7,"heterogenous",10.14,1,"1","f"
"964",11,8,"heterogenous",32.429,0,"1","f"
"965",11,9,"absent",19.813,1,"1","f"
"966",11,10,"absent",27.967,1,"1","f"
"967",11,11,"homogenous",1.293,1,"1","f"
"968",11,12,"homogenous",1.413,1,"1","f"
"969",11,13,"absent",20.708,0,"1","f"
"970",11,14,"homogenous",1.474,1,"1","f"
"971",11,15,"heterogenous",13.706,1,"1","f"
"972",11,16,"absent",17.565,1,"1","f"
"973",11,17,"absent",19.423,1,"1","f"
"974",11,18,"absent",28.128,1,"1","f"
"975",11,19,"absent",25.527,1,"1","f"
"976",11,20,"absent",19.895,1,"1","f"
"977",11,21,"absent",19.546,1,"1","f"
"978",11,22,"absent",20.578,1,"1","f"
"979",11,23,"absent",19.286,1,"1","f"
"980",11,24,"heterogenous",2.432,1,"1","f"
"981",11,25,"heterogenous",10.683,1,"1","f"
"982",11,26,"absent",31.813,1,"1","f"
"983",11,27,"absent",18.095,1,"1","f"
"984",11,28,"absent",23.72,1,"1","f"
"985",11,29,"absent",28.658,1,"1","f"
"986",11,30,"absent",13.173,1,"1","f"
"987",11,31,"heterogenous",7.08,1,"1","f"
"988",11,32,"heterogenous",18.724,0,"1","f"
"989",11,33,"absent",27.139,1,"1","f"
"990",11,34,"homogenous",1.23,1,"1","f"
"991",11,35,"heterogenous",14.485,1,"1","f"
"992",11,36,"homogenous",0.984,1,"1","f"
"993",11,37,"absent",23.508,1,"1","f"
"994",11,38,"homogenous",1.033,1,"1","f"
"995",11,39,"heterogenous",27.687,0,"1","f"
"996",11,40,"homogenous",1.219,1,"1","f"
"997",11,41,"homogenous",0.852,1,"1","f"
"998",11,42,"heterogenous",19.47,0,"1","f"
"999",11,43,"homogenous",1.023,1,"1","f"
"1000",11,44,"homogenous",0.818,1,"1","f"
"1001",11,45,"heterogenous",22.657,0,"1","f"
"1002",11,46,"heterogenous",24.069,1,"1","f"
"1003",11,47,"absent",22.645,1,"1","f"
"1004",11,48,"absent",12.424,1,"1","f"
"1005",11,49,"homogenous",1.06,1,"1","f"
"1006",11,50,"absent",17.097,1,"1","f"
"1007",11,51,"heterogenous",9.072,1,"1","f"
"1008",11,52,"absent",23.681,1,"1","f"
"1009",11,53,"heterogenous",21.023,0,"1","f"
"1010",11,54,"absent",28.342,1,"1","f"
"1011",11,55,"absent",28.478,1,"1","f"
"1012",11,56,"homogenous",0.996,1,"1","f"
"1013",11,57,"absent",23.969,1,"1","f"
"1014",11,58,"absent",30.512,1,"1","f"
"1015",11,59,"heterogenous",22.846,1,"1","f"
"1016",11,60,"absent",25.291,1,"1","f"
"1017",11,61,"heterogenous",14.742,1,"1","f"
"1018",11,62,"heterogenous",23.778,0,"1","f"
"1019",11,63,"homogenous",1.151,1,"1","f"
"1020",11,64,"heterogenous",18.275,0,"1","f"
"1021",11,65,"absent",24.047,1,"1","f"
"1022",11,66,"heterogenous",20.095,1,"1","f"
"1023",11,67,"homogenous",1.381,1,"1","f"
"1024",11,68,"heterogenous",3.652,1,"1","f"
"1025",11,69,"absent",19.989,1,"1","f"
"1026",11,70,"heterogenous",8.796,1,"1","f"
"1027",11,71,"absent",22.297,1,"1","f"
"1028",11,72,"absent",18.288,1,"1","f"
"1029",11,73,"absent",15.979,1,"1","f"
"1030",11,74,"homogenous",0.904,1,"1","f"
"1031",11,75,"absent",18.664,1,"1","f"
"1032",11,76,"homogenous",1.039,1,"1","f"
"1033",11,77,"absent",17.928,1,"1","f"
"1034",11,78,"absent",25.57,1,"1","f"
"1035",11,79,"absent",22.045,1,"1","f"
"1036",11,80,"absent",23.84,1,"1","f"
"1037",11,81,"homogenous",0.892,1,"1","f"
"1038",11,82,"absent",22.128,1,"1","f"
"1039",11,83,"absent",25.078,1,"1","f"
"1040",11,84,"absent",18.919,1,"1","f"
"1041",11,85,"heterogenous",16.068,1,"1","f"
"1042",11,86,"absent",15.703,1,"1","f"
"1043",11,87,"absent",13.754,1,"1","f"
"1044",11,88,"homogenous",0.837,1,"1","f"
"1045",11,89,"homogenous",0.812,1,"1","f"
"1046",11,90,"homogenous",0.762,1,"1","f"
"1047",11,91,"heterogenous",3.601,1,"1","f"
"1048",11,92,"absent",21.969,1,"1","f"
"1049",11,93,"absent",22.36,1,"1","f"
"1050",11,94,"homogenous",0.842,1,"1","f"
"1051",11,95,"absent",16.97,1,"1","f"
"1052",11,96,"homogenous",0.782,1,"1","f"
"1053",12,1,"absent",0.797,0,"1","f"
"1054",12,2,"absent",6.134,0,"1","f"
"1055",12,3,"absent",2.661,1,"1","f"
"1056",12,4,"homogenous",2.3,0,"1","f"
"1057",12,5,"heterogenous",1.225,0,"1","f"
"1058",12,6,"absent",1.614,1,"1","f"
"1059",12,7,"absent",1.574,0,"1","f"
"1060",12,8,"heterogenous",1.961,1,"1","f"
"1061",12,9,"absent",1.25,1,"1","f"
"1062",12,10,"heterogenous",1.253,1,"1","f"
"1063",12,11,"heterogenous",1.125,1,"1","f"
"1064",12,12,"heterogenous",1.862,0,"1","f"
"1065",12,13,"absent",1.7,0,"1","f"
"1066",12,14,"absent",0.802,0,"1","f"
"1067",12,15,"heterogenous",0.922,0,"1","f"
"1068",12,16,"homogenous",1.152,0,"1","f"
"1069",12,17,"heterogenous",0.873,1,"1","f"
"1070",12,18,"homogenous",0.822,1,"1","f"
"1071",12,19,"homogenous",1.704,1,"1","f"
"1072",12,20,"homogenous",0.9,0,"1","f"
"1073",12,21,"absent",0.851,0,"1","f"
"1074",12,22,"homogenous",1.406,1,"1","f"
"1075",12,23,"homogenous",1.743,1,"1","f"
"1076",12,24,"absent",5.793,1,"1","f"
"1077",12,25,"absent",2.343,1,"1","f"
"1078",12,26,"absent",4.245,0,"1","f"
"1079",12,27,"absent",6.251,0,"1","f"
"1080",12,28,"absent",2.761,0,"1","f"
"1081",12,29,"homogenous",8.645,1,"1","f"
"1082",12,30,"homogenous",16.166,0,"1","f"
"1083",12,31,"absent",16.289,1,"1","f"
"1084",12,32,"absent",9.367,0,"1","f"
"1085",12,33,"homogenous",4.619,1,"1","f"
"1086",12,34,"heterogenous",19.525,1,"1","f"
"1087",12,35,"absent",12.48,1,"1","f"
"1088",12,36,"homogenous",16.686,0,"1","f"
"1089",12,37,"absent",15.554,1,"1","f"
"1090",12,38,"absent",6.643,0,"1","f"
"1091",12,39,"heterogenous",29.121,0,"1","f"
"1092",12,40,"absent",6.776,0,"1","f"
"1093",12,41,"homogenous",9.112,1,"1","f"
"1094",12,42,"homogenous",18.547,1,"1","f"
"1095",12,43,"heterogenous",13.32,1,"1","f"
"1096",12,44,"absent",33.662,1,"1","f"
"1097",12,45,"absent",14.545,0,"1","f"
"1098",12,46,"absent",9.885,0,"1","f"
"1099",12,47,"absent",19.468,0,"1","f"
"1100",12,48,"homogenous",11.608,1,"1","f"
"1101",12,49,"absent",38.112,1,"1","f"
"1102",12,50,"absent",26.342,1,"1","f"
"1103",12,51,"absent",19.263,0,"1","f"
"1104",12,52,"absent",15.576,0,"1","f"
"1105",12,53,"absent",34.11,0,"1","f"
"1106",12,54,"heterogenous",12.809,1,"1","f"
"1107",12,55,"homogenous",23.763,1,"1","f"
"1108",12,56,"homogenous",23.12,1,"1","f"
"1109",12,57,"heterogenous",14.871,1,"1","f"
"1110",12,58,"absent",7.276,0,"1","f"
"1111",12,59,"absent",29.058,1,"1","f"
"1112",12,60,"heterogenous",9.923,1,"1","f"
"1113",12,61,"heterogenous",10.939,1,"1","f"
"1114",12,62,"absent",16.273,0,"1","f"
"1115",12,63,"heterogenous",20.256,1,"1","f"
"1116",12,64,"homogenous",15.021,1,"1","f"
"1117",12,65,"absent",12.368,0,"1","f"
"1118",12,66,"absent",15.71,0,"1","f"
"1119",12,67,"absent",13.372,0,"1","f"
"1120",12,68,"absent",11.468,0,"1","f"
"1121",12,69,"heterogenous",14.648,1,"1","f"
"1122",12,70,"absent",23.304,0,"1","f"
"1123",12,71,"heterogenous",7.776,1,"1","f"
"1124",12,72,"homogenous",13.551,1,"1","f"
"1125",12,73,"absent",17.997,0,"1","f"
"1126",12,74,"absent",19.58,0,"1","f"
"1127",12,75,"homogenous",8.205,1,"1","f"
"1128",12,76,"homogenous",15.518,1,"1","f"
"1129",12,77,"absent",13.715,0,"1","f"
"1130",12,78,"absent",5.336,1,"1","f"
"1131",12,79,"absent",12.437,0,"1","f"
"1132",12,80,"absent",5.501,0,"1","f"
"1133",12,81,"homogenous",2.991,1,"1","f"
"1134",12,82,"homogenous",4.831,1,"1","f"
"1135",12,83,"heterogenous",18.296,1,"1","f"
"1136",12,84,"absent",14.055,0,"1","f"
"1137",12,85,"heterogenous",5.261,0,"1","f"
"1138",12,86,"absent",5.622,0,"1","f"
"1139",12,87,"heterogenous",7.092,1,"1","f"
"1140",12,88,"absent",7.646,0,"1","f"
"1141",12,89,"heterogenous",9.576,1,"1","f"
"1142",12,90,"homogenous",6.879,1,"1","f"
"1143",12,91,"absent",4.026,0,"1","f"
"1144",12,92,"absent",11.047,0,"1","f"
"1145",12,93,"heterogenous",13.703,1,"1","f"
"1146",12,94,"heterogenous",4.149,1,"1","f"
"1147",12,95,"homogenous",9.113,1,"1","f"
"1148",12,96,"heterogenous",7.995,1,"1","f"
"1149",13,1,"heterogenous",1.06,1,"1","r"
"1150",13,2,"homogenous",0.999,1,"1","r"
"1151",13,3,"absent",0.864,0,"1","r"
"1152",13,4,"heterogenous",0.888,1,"1","r"
"1153",13,5,"absent",0.8,0,"1","r"
"1154",13,6,"absent",1.801,0,"1","r"
"1155",13,7,"heterogenous",1.081,1,"1","r"
"1156",13,8,"absent",1.438,0,"1","r"
"1157",13,9,"heterogenous",2.749,1,"1","r"
"1158",13,10,"heterogenous",2.313,1,"1","r"
"1159",13,11,"homogenous",1.889,1,"1","r"
"1160",13,12,"homogenous",1.729,1,"1","r"
"1161",13,13,"homogenous",1.481,1,"1","r"
"1162",13,14,"homogenous",1.162,1,"1","r"
"1163",13,15,"homogenous",1.122,1,"1","r"
"1164",13,16,"absent",8.214,1,"1","r"
"1165",13,17,"absent",6.539,1,"1","r"
"1166",13,18,"homogenous",1.93,1,"1","r"
"1167",13,19,"absent",15.377,1,"1","r"
"1168",13,20,"heterogenous",6.794,1,"1","r"
"1169",13,21,"homogenous",1.662,1,"1","r"
"1170",13,22,"absent",8.135,0,"1","r"
"1171",13,23,"homogenous",1.058,1,"1","r"
"1172",13,24,"heterogenous",9.7,0,"1","r"
"1173",13,25,"absent",13.639,0,"1","r"
"1174",13,26,"homogenous",1.07,1,"1","r"
"1175",13,27,"absent",11.932,1,"1","r"
"1176",13,28,"absent",11.006,1,"1","r"
"1177",13,29,"absent",15.635,1,"1","r"
"1178",13,30,"homogenous",1.002,1,"1","r"
"1179",13,31,"absent",4.074,0,"1","r"
"1180",13,32,"absent",12.8,1,"1","r"
"1181",13,33,"heterogenous",5.966,0,"1","r"
"1182",13,35,"absent",14.106,1,"1","r"
"1183",13,36,"absent",7.504,1,"1","r"
"1184",13,37,"absent",10.596,1,"1","r"
"1185",13,38,"homogenous",1.501,1,"1","r"
"1186",13,39,"heterogenous",8.823,1,"1","r"
"1187",13,40,"absent",8.312,1,"1","r"
"1188",13,41,"heterogenous",10.202,0,"1","r"
"1189",13,42,"absent",4.284,1,"1","r"
"1190",13,43,"heterogenous",11.772,0,"1","r"
"1191",13,44,"absent",8.572,0,"1","r"
"1192",13,45,"absent",2.393,0,"1","r"
"1193",13,46,"homogenous",1.04,1,"1","r"
"1194",13,47,"absent",2.689,1,"1","r"
"1195",13,48,"absent",9.152,1,"1","r"
"1196",13,49,"heterogenous",8.703,0,"1","r"
"1197",13,50,"homogenous",0.91,1,"1","r"
"1198",13,51,"homogenous",0.809,0,"1","r"
"1199",13,52,"absent",8.553,1,"1","r"
"1200",13,53,"homogenous",1.644,1,"1","r"
"1201",13,54,"heterogenous",9.328,0,"1","r"
"1202",13,55,"absent",7.794,1,"1","r"
"1203",13,56,"heterogenous",7.923,0,"1","r"
"1204",13,57,"absent",6.594,1,"1","r"
"1205",13,58,"absent",7.199,0,"1","r"
"1206",13,59,"homogenous",1,0,"1","r"
"1207",13,60,"homogenous",0.831,1,"1","r"
"1208",13,61,"absent",9.521,1,"1","r"
"1209",13,62,"absent",11.389,1,"1","r"
"1210",13,63,"heterogenous",8.412,0,"1","r"
"1211",13,64,"absent",5.9,1,"1","r"
"1212",13,65,"homogenous",1.012,1,"1","r"
"1213",13,66,"absent",7.971,0,"1","r"
"1214",13,67,"absent",6.512,1,"1","r"
"1215",13,68,"absent",21.428,1,"1","r"
"1216",13,69,"absent",6.802,0,"1","r"
"1217",13,70,"absent",10.853,0,"1","r"
"1218",13,71,"heterogenous",7.12,1,"1","r"
"1219",13,72,"homogenous",0.799,1,"1","r"
"1220",13,73,"homogenous",0.808,1,"1","r"
"1221",13,74,"heterogenous",2.239,1,"1","r"
"1222",13,75,"homogenous",1.162,1,"1","r"
"1223",13,76,"absent",8.716,1,"1","r"
"1224",13,77,"absent",8.255,1,"1","r"
"1225",13,78,"absent",8.141,1,"1","r"
"1226",13,79,"absent",14.529,1,"1","r"
"1227",13,80,"heterogenous",5.888,1,"1","r"
"1228",13,81,"heterogenous",3.056,1,"1","r"
"1229",13,82,"heterogenous",13.688,0,"1","r"
"1230",13,83,"absent",4.503,1,"1","r"
"1231",13,84,"absent",10.283,1,"1","r"
"1232",13,85,"absent",8.765,1,"1","r"
"1233",13,86,"heterogenous",14.11,1,"1","r"
"1234",13,87,"heterogenous",10.92,0,"1","r"
"1235",13,88,"absent",11.426,1,"1","r"
"1236",13,89,"absent",13.779,1,"1","r"
"1237",13,90,"homogenous",0.882,1,"1","r"
"1238",13,91,"absent",14.377,1,"1","r"
"1239",13,92,"absent",14.886,1,"1","r"
"1240",13,93,"heterogenous",8.36,1,"1","r"
"1241",13,94,"heterogenous",17.906,0,"1","r"
"1242",13,95,"homogenous",0.916,1,"1","r"
"1243",13,96,"absent",8.934,1,"1","r"
"1244",14,1,"absent",4.153,0,"1","r"
"1245",14,2,"heterogenous",4.571,1,"1","r"
"1246",14,3,"absent",12.967,0,"1","r"
"1247",14,4,"heterogenous",11.136,1,"1","r"
"1248",14,5,"homogenous",3.551,0,"1","r"
"1249",14,6,"heterogenous",18.806,1,"1","r"
"1250",14,7,"absent",26.664,0,"1","r"
"1251",14,8,"absent",22.608,0,"1","r"
"1252",14,9,"absent",19.029,0,"1","r"
"1253",14,10,"absent",25.794,0,"1","r"
"1254",14,11,"homogenous",2.986,0,"1","r"
"1255",14,12,"absent",23.637,0,"1","r"
"1256",14,13,"absent",3.234,0,"1","r"
"1257",14,14,"absent",2.469,0,"1","r"
"1258",14,15,"heterogenous",4.859,1,"1","r"
"1259",14,16,"heterogenous",7.832,1,"1","r"
"1260",14,17,"homogenous",2.625,0,"1","r"
"1261",14,18,"homogenous",1.61,0,"1","r"
"1262",14,19,"absent",22.168,0,"1","r"
"1263",14,20,"homogenous",1.769,0,"1","r"
"1264",14,21,"absent",4.742,0,"1","r"
"1265",14,22,"heterogenous",4.973,1,"1","r"
"1266",14,23,"heterogenous",12.978,1,"1","r"
"1267",14,24,"absent",25.58,0,"1","r"
"1268",14,25,"homogenous",0.87,0,"1","r"
"1269",14,26,"homogenous",2.878,0,"1","r"
"1270",14,27,"homogenous",2.314,0,"1","r"
"1271",14,28,"homogenous",3.743,0,"1","r"
"1272",14,29,"absent",17.405,1,"1","r"
"1273",14,30,"homogenous",2.744,0,"1","r"
"1274",14,31,"heterogenous",4.54,1,"1","r"
"1275",14,32,"homogenous",1.313,0,"1","r"
"1276",14,33,"absent",9.431,0,"1","r"
"1277",14,34,"heterogenous",9.553,1,"1","r"
"1278",14,35,"absent",7.025,0,"1","r"
"1279",14,36,"absent",12.066,1,"1","r"
"1280",14,37,"homogenous",2.708,0,"1","r"
"1281",14,38,"heterogenous",13.008,1,"1","r"
"1282",14,39,"absent",3.669,0,"1","r"
"1283",14,40,"absent",3.41,1,"1","r"
"1284",14,41,"homogenous",1.135,0,"1","r"
"1285",14,42,"heterogenous",3.353,0,"1","r"
"1286",14,43,"heterogenous",6.673,0,"1","r"
"1287",14,44,"absent",3.845,1,"1","r"
"1288",14,45,"absent",20.638,1,"1","r"
"1289",14,46,"absent",4.471,0,"1","r"
"1290",14,47,"absent",1.911,0,"1","r"
"1291",14,48,"absent",2.191,0,"1","r"
"1292",14,49,"absent",2.801,0,"1","r"
"1293",14,50,"heterogenous",2.45,1,"1","r"
"1294",14,51,"absent",1.54,1,"1","r"
"1295",14,52,"absent",2.868,0,"1","r"
"1296",14,53,"absent",2.848,0,"1","r"
"1297",14,54,"absent",4.471,0,"1","r"
"1298",14,55,"heterogenous",2.081,1,"1","r"
"1299",14,56,"homogenous",1.392,0,"1","r"
"1300",14,57,"heterogenous",3.221,1,"1","r"
"1301",14,58,"absent",3.45,1,"1","r"
"1302",14,59,"heterogenous",2.729,1,"1","r"
"1303",14,60,"homogenous",1.324,0,"1","r"
"1304",14,61,"heterogenous",2.966,1,"1","r"
"1305",14,62,"heterogenous",3.879,1,"1","r"
"1306",14,63,"absent",6.27,0,"1","r"
"1307",14,64,"homogenous",1.336,0,"1","r"
"1308",14,65,"absent",3.073,1,"1","r"
"1309",14,67,"absent",11.942,0,"1","r"
"1310",14,68,"absent",13.362,1,"1","r"
"1311",14,69,"absent",1.857,0,"1","r"
"1312",14,70,"absent",1.942,0,"1","r"
"1313",14,71,"absent",1.941,0,"1","r"
"1314",14,72,"homogenous",0.97,0,"1","r"
"1315",14,73,"heterogenous",2.258,1,"1","r"
"1316",14,74,"heterogenous",2.878,1,"1","r"
"1317",14,75,"absent",3.78,0,"1","r"
"1318",14,76,"absent",3.935,1,"1","r"
"1319",14,77,"absent",3.839,0,"1","r"
"1320",14,78,"homogenous",0.752,0,"1","r"
"1321",14,79,"homogenous",1.137,0,"1","r"
"1322",14,80,"absent",5.034,0,"1","r"
"1323",14,81,"absent",4.169,0,"1","r"
"1324",14,82,"homogenous",1.135,0,"1","r"
"1325",14,83,"heterogenous",3.328,1,"1","r"
"1326",14,84,"heterogenous",3.001,1,"1","r"
"1327",14,85,"heterogenous",2.878,1,"1","r"
"1328",14,86,"homogenous",0.983,0,"1","r"
"1329",14,87,"absent",3.44,0,"1","r"
"1330",14,88,"absent",4.424,0,"1","r"
"1331",14,89,"absent",5.64,0,"1","r"
"1332",14,90,"homogenous",1.009,0,"1","r"
"1333",14,91,"absent",9.675,0,"1","r"
"1334",14,92,"heterogenous",5.614,0,"1","r"
"1335",14,93,"absent",7.103,0,"1","r"
"1336",14,94,"absent",11.248,0,"1","r"
"1337",14,95,"absent",7.732,0,"1","r"
"1338",15,1,"absent",5.214,1,"1","f"
"1339",15,2,"absent",5.83,1,"1","f"
"1340",15,3,"absent",6.525,1,"1","f"
"1341",15,4,"heterogenous",7.28,0,"1","f"
"1342",15,5,"homogenous",1.179,1,"1","f"
"1343",15,6,"absent",5.461,1,"1","f"
"1344",15,7,"absent",4.111,1,"1","f"
"1345",15,8,"absent",4.685,1,"1","f"
"1346",15,9,"absent",4.072,1,"1","f"
"1347",15,10,"heterogenous",4.561,0,"1","f"
"1348",15,11,"homogenous",1.118,1,"1","f"
"1349",15,12,"absent",5.551,1,"1","f"
"1350",15,13,"absent",5.286,1,"1","f"
"1351",15,14,"heterogenous",6.213,0,"1","f"
"1352",15,15,"homogenous",0.863,1,"1","f"
"1353",15,16,"absent",7.415,1,"1","f"
"1354",15,17,"heterogenous",3.31,1,"1","f"
"1355",15,18,"homogenous",0.892,1,"1","f"
"1356",15,19,"absent",5.292,1,"1","f"
"1357",15,20,"homogenous",0.896,1,"1","f"
"1358",15,21,"absent",3.519,1,"1","f"
"1359",15,22,"absent",4.203,1,"1","f"
"1360",15,23,"absent",4.953,1,"1","f"
"1361",15,24,"heterogenous",4.198,0,"1","f"
"1362",15,25,"homogenous",0.94,1,"1","f"
"1363",15,26,"absent",5.752,1,"1","f"
"1364",15,27,"heterogenous",5.003,0,"1","f"
"1365",15,28,"absent",5.903,0,"1","f"
"1366",15,29,"absent",6.082,1,"1","f"
"1367",15,30,"absent",5.294,1,"1","f"
"1368",15,31,"absent",4.702,1,"1","f"
"1369",15,32,"homogenous",1.04,1,"1","f"
"1370",15,33,"absent",6.473,1,"1","f"
"1371",15,34,"homogenous",0.779,1,"1","f"
"1372",15,35,"absent",4.474,1,"1","f"
"1373",15,36,"heterogenous",7.005,0,"1","f"
"1374",15,37,"homogenous",1.062,1,"1","f"
"1375",15,38,"homogenous",1.204,1,"1","f"
"1376",15,39,"homogenous",0.851,1,"1","f"
"1377",15,40,"heterogenous",7.224,0,"1","f"
"1378",15,41,"homogenous",0.972,1,"1","f"
"1379",15,42,"absent",8.001,1,"1","f"
"1380",15,43,"heterogenous",5.294,0,"1","f"
"1381",15,44,"heterogenous",7.2,0,"1","f"
"1382",15,45,"heterogenous",8.164,0,"1","f"
"1383",15,46,"heterogenous",5.896,0,"1","f"
"1384",15,47,"absent",8.023,1,"1","f"
"1385",15,48,"absent",6.322,1,"1","f"
"1386",15,49,"homogenous",0.902,1,"1","f"
"1387",15,50,"absent",7.274,1,"1","f"
"1388",15,51,"absent",6.764,1,"1","f"
"1389",15,52,"homogenous",0.829,1,"1","f"
"1390",15,53,"absent",8.226,1,"1","f"
"1391",15,54,"absent",5.21,1,"1","f"
"1392",15,55,"homogenous",0.75,1,"1","f"
"1393",15,56,"absent",5.592,1,"1","f"
"1394",15,57,"heterogenous",4.163,0,"1","f"
"1395",15,58,"absent",6.829,1,"1","f"
"1396",15,59,"homogenous",0.778,1,"1","f"
"1397",15,60,"heterogenous",6.42,0,"1","f"
"1398",15,61,"heterogenous",6.774,0,"1","f"
"1399",15,62,"heterogenous",7.363,0,"1","f"
"1400",15,63,"heterogenous",9.472,0,"1","f"
"1401",15,64,"absent",12.513,0,"1","f"
"1402",15,65,"absent",8.311,1,"1","f"
"1403",15,66,"absent",6.75,1,"1","f"
"1404",15,67,"homogenous",0.903,1,"1","f"
"1405",15,68,"absent",10.662,1,"1","f"
"1406",15,69,"absent",8.98,1,"1","f"
"1407",15,70,"absent",7.925,1,"1","f"
"1408",15,71,"absent",6.563,1,"1","f"
"1409",15,72,"homogenous",1.037,1,"1","f"
"1410",15,73,"absent",10.036,1,"1","f"
"1411",15,74,"absent",7.585,1,"1","f"
"1412",15,76,"absent",5.544,0,"1","f"
"1413",15,77,"heterogenous",6.382,1,"1","f"
"1414",15,78,"homogenous",0.841,1,"1","f"
"1415",15,79,"absent",6.282,1,"1","f"
"1416",15,80,"homogenous",0.848,1,"1","f"
"1417",15,81,"heterogenous",5.3,0,"1","f"
"1418",15,82,"absent",9.275,1,"1","f"
"1419",15,83,"homogenous",0.748,1,"1","f"
"1420",15,84,"heterogenous",6.565,0,"1","f"
"1421",15,85,"heterogenous",7.801,0,"1","f"
"1422",15,86,"absent",8.845,1,"1","f"
"1423",15,87,"heterogenous",5.782,1,"1","f"
"1424",15,88,"heterogenous",9.125,1,"1","f"
"1425",15,89,"heterogenous",10.115,0,"1","f"
"1426",15,90,"absent",8.475,1,"1","f"
"1427",15,91,"absent",5.396,0,"1","f"
"1428",15,92,"absent",5.144,1,"1","f"
"1429",15,93,"homogenous",0.702,1,"1","f"
"1430",15,94,"homogenous",0.973,1,"1","f"
"1431",15,95,"absent",7.331,1,"1","f"
"1432",15,96,"absent",5.53,1,"1","f"
"1433",16,1,"absent",1.475,1,"1","r"
"1434",16,2,"heterogenous",0.963,0,"1","r"
"1435",16,3,"absent",1.48,1,"1","r"
"1436",16,4,"absent",1.238,1,"1","r"
"1437",16,5,"heterogenous",0.96,0,"1","r"
"1438",16,6,"absent",1.607,1,"1","r"
"1439",16,7,"absent",2.172,1,"1","r"
"1440",16,8,"absent",1.75,1,"1","r"
"1441",16,9,"homogenous",1.009,1,"1","r"
"1442",16,10,"heterogenous",1.246,0,"1","r"
"1443",16,11,"homogenous",1.042,1,"1","r"
"1444",16,12,"heterogenous",2.073,0,"1","r"
"1445",16,13,"absent",3.012,1,"1","r"
"1446",16,14,"homogenous",1.019,1,"1","r"
"1447",16,15,"homogenous",1.071,1,"1","r"
"1448",16,16,"heterogenous",1.732,0,"1","r"
"1449",16,17,"absent",1.568,1,"1","r"
"1450",16,18,"homogenous",0.93,1,"1","r"
"1451",16,19,"heterogenous",1.64,0,"1","r"
"1452",16,20,"homogenous",1.021,1,"1","r"
"1453",16,21,"absent",1.677,1,"1","r"
"1454",16,22,"heterogenous",2.32,0,"1","r"
"1455",16,23,"absent",1.451,1,"1","r"
"1456",16,24,"absent",1.616,1,"1","r"
"1457",16,25,"absent",2,1,"1","r"
"1458",16,26,"absent",2.282,1,"1","r"
"1459",16,27,"absent",1.995,1,"1","r"
"1460",16,28,"absent",1.99,1,"1","r"
"1461",16,29,"absent",2.755,1,"1","r"
"1462",16,30,"absent",1.973,1,"1","r"
"1463",16,31,"homogenous",0.939,1,"1","r"
"1464",16,32,"absent",1.617,1,"1","r"
"1465",16,33,"absent",1.582,1,"1","r"
"1466",16,34,"homogenous",0.942,1,"1","r"
"1467",16,35,"absent",1.583,1,"1","r"
"1468",16,36,"absent",1.571,1,"1","r"
"1469",16,37,"absent",1.805,1,"1","r"
"1470",16,38,"absent",1.208,1,"1","r"
"1471",16,39,"absent",1.855,1,"1","r"
"1472",16,40,"heterogenous",1.533,0,"1","r"
"1473",16,41,"absent",1.693,1,"1","r"
"1474",16,42,"absent",1.843,1,"1","r"
"1475",16,43,"heterogenous",1.879,0,"1","r"
"1476",16,44,"absent",1.451,1,"1","r"
"1477",16,45,"homogenous",0.982,0,"1","r"
"1478",16,46,"heterogenous",1.678,0,"1","r"
"1479",16,47,"homogenous",1.033,1,"1","r"
"1480",16,48,"absent",1.369,1,"1","r"
"1481",16,49,"heterogenous",1.581,0,"1","r"
"1482",16,50,"heterogenous",1.784,0,"1","r"
"1483",16,51,"heterogenous",2.514,0,"1","r"
"1484",16,52,"homogenous",0.921,1,"1","r"
"1485",16,53,"homogenous",0.998,1,"1","r"
"1486",16,54,"absent",1.341,1,"1","r"
"1487",16,55,"absent",1.76,1,"1","r"
"1488",16,56,"homogenous",0.99,1,"1","r"
"1489",16,57,"absent",1.813,1,"1","r"
"1490",16,58,"absent",1.272,1,"1","r"
"1491",16,59,"absent",2.482,1,"1","r"
"1492",16,60,"heterogenous",1.741,0,"1","r"
"1493",16,61,"heterogenous",2.078,0,"1","r"
"1494",16,62,"homogenous",1.028,1,"1","r"
"1495",16,64,"heterogenous",1.633,0,"1","r"
"1496",16,65,"homogenous",1.01,1,"1","r"
"1497",16,66,"absent",2.114,1,"1","r"
"1498",16,67,"heterogenous",1.648,0,"1","r"
"1499",16,68,"absent",2.371,1,"1","r"
"1500",16,69,"absent",1.907,1,"1","r"
"1501",16,70,"heterogenous",1.373,0,"1","r"
"1502",16,71,"homogenous",0.881,1,"1","r"
"1503",16,72,"absent",1.523,1,"1","r"
"1504",16,73,"absent",2.292,1,"1","r"
"1505",16,74,"homogenous",0.931,1,"1","r"
"1506",16,75,"absent",1.244,1,"1","r"
"1507",16,76,"absent",1.093,1,"1","r"
"1508",16,77,"heterogenous",1.392,0,"1","r"
"1509",16,78,"heterogenous",1.786,0,"1","r"
"1510",16,79,"absent",1.867,1,"1","r"
"1511",16,80,"heterogenous",1.358,0,"1","r"
"1512",16,81,"absent",1.88,1,"1","r"
"1513",16,82,"homogenous",0.975,1,"1","r"
"1514",16,83,"heterogenous",1.79,0,"1","r"
"1515",16,84,"homogenous",0.92,1,"1","r"
"1516",16,85,"absent",1.793,1,"1","r"
"1517",16,86,"homogenous",0.894,1,"1","r"
"1518",16,87,"heterogenous",1.363,0,"1","r"
"1519",16,88,"absent",1.819,1,"1","r"
"1520",16,89,"homogenous",0.852,1,"1","r"
"1521",16,90,"absent",1.865,1,"1","r"
"1522",16,91,"absent",2.696,1,"1","r"
"1523",16,92,"homogenous",0.902,1,"1","r"
"1524",16,93,"homogenous",0.905,1,"1","r"
"1525",16,94,"homogenous",0.946,1,"1","r"
"1526",16,95,"absent",1.722,1,"1","r"
"1527",16,96,"absent",2.295,1,"1","r"
"1528",17,1,"absent",8.768,1,"1","r"
"1529",17,2,"homogenous",1.803,1,"1","r"
"1530",17,3,"homogenous",1.457,0,"1","r"
"1531",17,4,"heterogenous",7.085,0,"1","r"
"1532",17,5,"absent",6.325,0,"1","r"
"1533",17,6,"absent",7.522,0,"1","r"
"1534",17,7,"absent",3.402,0,"1","r"
"1535",17,8,"homogenous",13.103,0,"1","r"
"1536",17,9,"heterogenous",5.384,1,"1","r"
"1537",17,10,"absent",11.464,0,"1","r"
"1538",17,11,"homogenous",6.364,0,"1","r"
"1539",17,12,"absent",11.498,1,"1","r"
"1540",17,13,"absent",4.974,0,"1","r"
"1541",17,14,"homogenous",8.307,1,"1","r"
"1542",17,15,"heterogenous",1.843,1,"1","r"
"1543",17,16,"heterogenous",0.981,1,"1","r"
"1544",17,17,"homogenous",1.746,1,"1","r"
"1545",17,18,"absent",5.813,1,"1","r"
"1546",17,19,"absent",7.451,1,"1","r"
"1547",17,20,"absent",7.007,1,"1","r"
"1548",17,21,"absent",6.846,1,"1","r"
"1549",17,22,"absent",4.356,1,"1","r"
"1550",17,23,"homogenous",3.062,1,"1","r"
"1551",17,24,"absent",5.111,1,"1","r"
"1552",17,25,"heterogenous",5.862,0,"1","r"
"1553",17,26,"heterogenous",3.345,1,"1","r"
"1554",17,27,"absent",3.267,1,"1","r"
"1555",17,28,"absent",4.714,1,"1","r"
"1556",17,29,"homogenous",1.48,1,"1","r"
"1557",17,30,"absent",1.336,0,"1","r"
"1558",17,31,"homogenous",0.955,1,"1","r"
"1559",17,32,"heterogenous",4.01,0,"1","r"
"1560",17,33,"absent",6.025,0,"1","r"
"1561",17,34,"heterogenous",4.742,0,"1","r"
"1562",17,35,"heterogenous",5.983,0,"1","r"
"1563",17,36,"homogenous",0.946,1,"1","r"
"1564",17,37,"heterogenous",8.102,0,"1","r"
"1565",17,38,"heterogenous",8.111,0,"1","r"
"1566",17,39,"absent",3.966,0,"1","r"
"1567",17,40,"absent",6.864,1,"1","r"
"1568",17,41,"absent",2.042,0,"1","r"
"1569",17,42,"absent",3.554,0,"1","r"
"1570",17,43,"heterogenous",6.092,0,"1","r"
"1571",17,44,"homogenous",1.541,1,"1","r"
"1572",17,45,"heterogenous",1.169,1,"1","r"
"1573",17,46,"absent",3.273,0,"1","r"
"1574",17,47,"homogenous",0.918,1,"1","r"
"1575",17,48,"heterogenous",5.671,0,"1","r"
"1576",17,49,"absent",4.46,1,"1","r"
"1577",17,50,"heterogenous",2.343,1,"1","r"
"1578",17,51,"heterogenous",3.6,1,"1","r"
"1579",17,52,"absent",5.122,0,"1","r"
"1580",17,53,"homogenous",0.818,1,"1","r"
"1581",17,54,"absent",5.602,1,"1","r"
"1582",17,55,"homogenous",0.738,1,"1","r"
"1583",17,56,"absent",5.921,1,"1","r"
"1584",17,57,"absent",8.071,1,"1","r"
"1585",17,58,"absent",3.637,0,"1","r"
"1586",17,59,"homogenous",1.03,1,"1","r"
"1587",17,60,"homogenous",0.874,1,"1","r"
"1588",17,61,"homogenous",1.041,1,"1","r"
"1589",17,62,"absent",3.73,0,"1","r"
"1590",17,63,"homogenous",0.869,1,"1","r"
"1591",17,64,"homogenous",0.689,1,"1","r"
"1592",17,65,"absent",4.157,1,"1","r"
"1593",17,66,"homogenous",0.641,1,"1","r"
"1594",17,67,"heterogenous",3.749,0,"1","r"
"1595",17,68,"homogenous",0.726,1,"1","r"
"1596",17,69,"heterogenous",7.807,0,"1","r"
"1597",17,70,"heterogenous",7.652,0,"1","r"
"1598",17,71,"homogenous",0.609,1,"1","r"
"1599",17,72,"absent",6.236,0,"1","r"
"1600",17,73,"absent",5.017,1,"1","r"
"1601",17,74,"heterogenous",4.821,0,"1","r"
"1602",17,75,"absent",6.965,1,"1","r"
"1603",17,76,"absent",6.986,1,"1","r"
"1604",17,77,"absent",10.434,1,"1","r"
"1605",17,78,"absent",6.024,1,"1","r"
"1606",17,79,"absent",6.062,1,"1","r"
"1607",17,80,"heterogenous",2.071,1,"1","r"
"1608",17,81,"homogenous",1.135,1,"1","r"
"1609",17,82,"absent",6.361,0,"1","r"
"1610",17,83,"absent",4.487,1,"1","r"
"1611",17,84,"absent",1.309,0,"1","r"
"1612",17,85,"heterogenous",6.072,0,"1","r"
"1613",17,86,"homogenous",0.822,1,"1","r"
"1614",17,87,"absent",1.478,0,"1","r"
"1615",17,88,"absent",5.282,1,"1","r"
"1616",17,89,"absent",7.05,1,"1","r"
"1617",17,90,"absent",4.136,1,"1","r"
"1618",17,91,"heterogenous",3.19,1,"1","r"
"1619",17,92,"heterogenous",0.902,1,"1","r"
"1620",17,93,"absent",1.859,0,"1","r"
"1621",17,95,"absent",4.46,1,"1","r"
"1622",17,96,"absent",3.812,1,"1","r"
"1623",18,1,"homogenous",4.084,1,"1","f"
"1624",18,2,"absent",53.308,1,"1","f"
"1625",18,4,"absent",42.836,1,"1","f"
"1626",18,5,"homogenous",1.855,1,"1","f"
"1627",18,6,"absent",39.471,1,"1","f"
"1628",18,7,"heterogenous",34.844,1,"1","f"
"1629",18,8,"heterogenous",11.305,1,"1","f"
"1630",18,9,"heterogenous",35.529,0,"1","f"
"1631",18,10,"absent",42.887,1,"1","f"
"1632",18,11,"absent",20.536,1,"1","f"
"1633",18,12,"absent",27.562,0,"1","f"
"1634",18,13,"absent",6.463,0,"1","f"
"1635",18,14,"homogenous",1.89,1,"1","f"
"1636",18,15,"heterogenous",5.584,1,"1","f"
"1637",18,16,"heterogenous",20.788,1,"1","f"
"1638",18,17,"absent",20.619,0,"1","f"
"1639",18,18,"homogenous",1.412,1,"1","f"
"1640",18,19,"absent",17.249,1,"1","f"
"1641",18,20,"absent",5.362,0,"1","f"
"1642",18,21,"homogenous",1.285,1,"1","f"
"1643",18,22,"absent",20.13,1,"1","f"
"1644",18,23,"absent",24.602,1,"1","f"
"1645",18,24,"absent",19.555,1,"1","f"
"1646",18,25,"heterogenous",20.317,0,"1","f"
"1647",18,26,"absent",15.668,1,"1","f"
"1648",18,27,"homogenous",1.401,1,"1","f"
"1649",18,28,"absent",18.11,1,"1","f"
"1650",18,29,"homogenous",1.522,1,"1","f"
"1651",18,31,"absent",9.004,0,"1","f"
"1652",18,32,"absent",24.83,1,"1","f"
"1653",18,33,"absent",35.674,1,"1","f"
"1654",18,34,"heterogenous",32.906,0,"1","f"
"1655",18,35,"absent",31.842,1,"1","f"
"1656",18,36,"homogenous",1.229,1,"1","f"
"1657",18,37,"absent",30.099,1,"1","f"
"1658",18,38,"heterogenous",18.707,1,"1","f"
"1659",18,39,"homogenous",0.992,1,"1","f"
"1660",18,40,"absent",2.042,0,"1","f"
"1661",18,41,"homogenous",1.049,1,"1","f"
"1662",18,42,"absent",16.685,1,"1","f"
"1663",18,43,"homogenous",0.94,1,"1","f"
"1664",18,44,"homogenous",0.932,1,"1","f"
"1665",18,45,"homogenous",1.511,1,"1","f"
"1666",18,46,"absent",22.999,1,"1","f"
"1667",18,47,"heterogenous",24.346,0,"1","f"
"1668",18,48,"absent",29.247,1,"1","f"
"1669",18,49,"homogenous",1.463,1,"1","f"
"1670",18,50,"absent",38.923,0,"1","f"
"1671",18,51,"absent",18.884,1,"1","f"
"1672",18,52,"heterogenous",24.612,0,"1","f"
"1673",18,53,"absent",26.807,1,"1","f"
"1674",18,54,"absent",20.465,0,"1","f"
"1675",18,55,"absent",29.603,1,"1","f"
"1676",18,56,"absent",41.142,1,"1","f"
"1677",18,57,"absent",28.159,1,"1","f"
"1678",18,58,"absent",20.456,1,"1","f"
"1679",18,59,"absent",24.189,1,"1","f"
"1680",18,60,"heterogenous",20.921,0,"1","f"
"1681",18,61,"heterogenous",22.058,1,"1","f"
"1682",18,62,"absent",34.782,1,"1","f"
"1683",18,63,"absent",25.841,1,"1","f"
"1684",18,64,"absent",37.312,1,"1","f"
"1685",18,65,"heterogenous",37.262,0,"1","f"
"1686",18,66,"homogenous",1.357,1,"1","f"
"1687",18,67,"homogenous",0.705,1,"1","f"
"1688",18,68,"homogenous",1.421,1,"1","f"
"1689",18,69,"heterogenous",7.002,1,"1","f"
"1690",18,70,"homogenous",1.163,1,"1","f"
"1691",18,71,"absent",24.402,1,"1","f"
"1692",18,72,"homogenous",1.977,1,"1","f"
"1693",18,73,"absent",27.057,1,"1","f"
"1694",18,74,"absent",22.848,1,"1","f"
"1695",18,75,"heterogenous",22.246,0,"1","f"
"1696",18,76,"heterogenous",26.096,0,"1","f"
"1697",18,77,"absent",53.535,1,"1","f"
"1698",18,78,"heterogenous",19.35,0,"1","f"
"1699",18,79,"heterogenous",11.122,1,"1","f"
"1700",18,80,"homogenous",1.12,1,"1","f"
"1701",18,82,"heterogenous",14.166,0,"1","f"
"1702",18,83,"heterogenous",7.874,1,"1","f"
"1703",18,84,"heterogenous",9.236,1,"1","f"
"1704",18,85,"homogenous",0.993,1,"1","f"
"1705",18,86,"heterogenous",5.113,1,"1","f"
"1706",18,87,"homogenous",0.932,1,"1","f"
"1707",18,88,"absent",11.105,1,"1","f"
"1708",18,89,"absent",24.177,1,"1","f"
"1709",18,90,"homogenous",0.95,1,"1","f"
"1710",18,91,"heterogenous",19.988,0,"1","f"
"1711",18,92,"absent",15.134,1,"1","f"
"1712",18,93,"absent",23.857,1,"1","f"
"1713",18,94,"heterogenous",3.035,1,"1","f"
"1714",18,95,"absent",8.374,0,"1","f"
"1715",18,96,"absent",13.562,1,"1","f"
"1716",19,1,"heterogenous",2.142,1,"1","r"
"1717",19,2,"homogenous",1.682,0,"1","r"
"1718",19,3,"absent",1.178,1,"1","r"
"1719",19,4,"homogenous",1.66,1,"1","r"
"1720",19,5,"homogenous",1.772,1,"1","r"
"1721",19,6,"homogenous",2.135,1,"1","r"
"1722",19,7,"heterogenous",2.903,0,"1","r"
"1723",19,8,"absent",1.706,1,"1","r"
"1724",19,9,"absent",2.191,0,"1","r"
"1725",19,10,"absent",2.13,1,"1","r"
"1726",19,11,"homogenous",1.624,0,"1","r"
"1727",19,12,"homogenous",3.39,0,"1","r"
"1728",19,13,"heterogenous",3.839,0,"1","r"
"1729",19,14,"absent",2.478,0,"1","r"
"1730",19,15,"absent",3.563,1,"1","r"
"1731",19,16,"absent",2.894,1,"1","r"
"1732",19,17,"absent",1.36,1,"1","r"
"1733",19,18,"absent",1.379,1,"1","r"
"1734",19,19,"absent",2.48,0,"1","r"
"1735",19,20,"absent",1.431,1,"1","r"
"1736",19,21,"absent",2.649,1,"1","r"
"1737",19,22,"absent",3.164,1,"1","r"
"1738",19,23,"homogenous",1.527,0,"1","r"
"1739",19,24,"absent",1.608,1,"1","r"
"1740",19,25,"absent",2.351,0,"1","r"
"1741",19,26,"absent",3.138,1,"1","r"
"1742",19,27,"heterogenous",2.303,0,"1","r"
"1743",19,28,"absent",4.684,0,"1","r"
"1744",19,29,"homogenous",1.994,0,"1","r"
"1745",19,30,"absent",1.769,1,"1","r"
"1746",19,31,"heterogenous",1.414,1,"1","r"
"1747",19,32,"absent",4.544,0,"1","r"
"1748",19,33,"absent",1.911,1,"1","r"
"1749",19,34,"absent",2.039,1,"1","r"
"1750",19,35,"homogenous",2.635,0,"1","r"
"1751",19,36,"homogenous",1.802,1,"1","r"
"1752",19,37,"homogenous",2.284,0,"1","r"
"1753",19,38,"absent",4.372,1,"1","r"
"1754",19,39,"absent",0.952,1,"1","r"
"1755",19,40,"absent",1.834,1,"1","r"
"1756",19,41,"homogenous",2.281,1,"1","r"
"1757",19,42,"absent",1.042,1,"1","r"
"1758",19,43,"absent",1.132,0,"1","r"
"1759",19,44,"homogenous",2.703,1,"1","r"
"1760",19,45,"heterogenous",1.08,0,"1","r"
"1761",19,46,"absent",3.64,1,"1","r"
"1762",19,47,"homogenous",2.337,0,"1","r"
"1763",19,48,"heterogenous",5.58,0,"1","r"
"1764",19,49,"homogenous",4.861,1,"1","r"
"1765",19,50,"heterogenous",2.054,1,"1","r"
"1766",19,51,"absent",2.3,1,"1","r"
"1767",19,52,"absent",2.107,0,"1","r"
"1768",19,53,"heterogenous",4.062,1,"1","r"
"1769",19,54,"absent",1.144,1,"1","r"
"1770",19,55,"absent",1.067,0,"1","r"
"1771",19,56,"absent",2.178,1,"1","r"
"1772",19,57,"homogenous",1.655,0,"1","r"
"1773",19,58,"homogenous",1.341,1,"1","r"
"1774",19,59,"heterogenous",2.372,0,"1","r"
"1775",19,60,"homogenous",0.885,1,"1","r"
"1776",19,61,"absent",1.488,1,"1","r"
"1777",19,62,"heterogenous",4.484,1,"1","r"
"1778",19,63,"heterogenous",3.951,0,"1","r"
"1779",19,64,"absent",2.173,1,"1","r"
"1780",19,65,"homogenous",1.893,0,"1","r"
"1781",19,66,"absent",2.645,0,"1","r"
"1782",19,67,"absent",2.925,1,"1","r"
"1783",19,68,"homogenous",5.7,0,"1","r"
"1784",19,69,"heterogenous",7.738,0,"1","r"
"1785",19,70,"absent",0.989,1,"1","r"
"1786",19,71,"absent",4.933,1,"1","r"
"1787",19,72,"homogenous",1.093,0,"1","r"
"1788",19,73,"absent",2.95,1,"1","r"
"1789",19,74,"absent",4.06,1,"1","r"
"1790",19,75,"heterogenous",2.864,0,"1","r"
"1791",19,76,"heterogenous",3.274,0,"1","r"
"1792",19,77,"heterogenous",3.763,0,"1","r"
"1793",19,78,"absent",5.804,1,"1","r"
"1794",19,79,"heterogenous",3.083,1,"1","r"
"1795",19,80,"homogenous",2.955,1,"1","r"
"1796",19,81,"absent",1.836,1,"1","r"
"1797",19,82,"absent",1.361,0,"1","r"
"1798",19,83,"absent",0.951,1,"1","r"
"1799",19,84,"heterogenous",1.008,0,"1","r"
"1800",19,85,"absent",1.424,1,"1","r"
"1801",19,86,"heterogenous",1.066,0,"1","r"
"1802",19,87,"absent",3.426,0,"1","r"
"1803",19,88,"absent",1.186,1,"1","r"
"1804",19,89,"heterogenous",1.628,0,"1","r"
"1805",19,90,"heterogenous",0.912,0,"1","r"
"1806",19,91,"heterogenous",2.579,0,"1","r"
"1807",19,92,"homogenous",1.793,0,"1","r"
"1808",19,93,"absent",3.869,0,"1","r"
"1809",19,94,"homogenous",1.099,0,"1","r"
"1810",19,95,"heterogenous",3.948,1,"1","r"
"1811",19,96,"heterogenous",1.845,0,"1","r"
"1812",20,1,"homogenous",2.729,1,"1","f"
"1813",20,2,"heterogenous",6.057,0,"1","f"
"1814",20,3,"homogenous",2.98,1,"1","f"
"1815",20,4,"absent",7.089,1,"1","f"
"1816",20,5,"absent",6.533,0,"1","f"
"1817",20,6,"heterogenous",7.941,0,"1","f"
"1818",20,7,"heterogenous",7.901,0,"1","f"
"1819",20,8,"homogenous",1.211,1,"1","f"
"1820",20,9,"homogenous",1.187,1,"1","f"
"1821",20,10,"absent",7.607,1,"1","f"
"1822",20,11,"heterogenous",8.944,0,"1","f"
"1823",20,12,"homogenous",1.073,1,"1","f"
"1824",20,13,"absent",8.995,1,"1","f"
"1825",20,14,"absent",9.002,1,"1","f"
"1826",20,15,"heterogenous",6.537,0,"1","f"
"1827",20,16,"absent",6.781,1,"1","f"
"1828",20,17,"absent",6.942,1,"1","f"
"1829",20,18,"absent",11.672,1,"1","f"
"1830",20,19,"absent",10.091,1,"1","f"
"1831",20,20,"heterogenous",8.301,0,"1","f"
"1832",20,21,"absent",8.018,1,"1","f"
"1833",20,22,"homogenous",1.089,1,"1","f"
"1834",20,23,"absent",11.355,1,"1","f"
"1835",20,24,"absent",13.833,1,"1","f"
"1836",20,25,"absent",6.644,1,"1","f"
"1837",20,26,"homogenous",1.019,1,"1","f"
"1838",20,27,"absent",10.713,1,"1","f"
"1839",20,28,"homogenous",0.966,1,"1","f"
"1840",20,29,"heterogenous",11.042,0,"1","f"
"1841",20,30,"homogenous",0.887,1,"1","f"
"1842",20,31,"absent",9.812,1,"1","f"
"1843",20,32,"absent",8.234,1,"1","f"
"1844",20,33,"absent",11.922,1,"1","f"
"1845",20,34,"heterogenous",7.703,0,"1","f"
"1846",20,35,"homogenous",0.849,1,"1","f"
"1847",20,36,"heterogenous",8.793,0,"1","f"
"1848",20,37,"homogenous",1.137,1,"1","f"
"1849",20,38,"heterogenous",14.513,0,"1","f"
"1850",20,39,"absent",8.311,1,"1","f"
"1851",20,40,"absent",4.909,0,"1","f"
"1852",20,41,"homogenous",1.157,1,"1","f"
"1853",20,42,"absent",11.386,0,"1","f"
"1854",20,43,"heterogenous",9.014,0,"1","f"
"1855",20,44,"absent",8.604,1,"1","f"
"1856",20,45,"heterogenous",5.414,1,"1","f"
"1857",20,46,"homogenous",0.966,1,"1","f"
"1858",20,47,"heterogenous",10.624,0,"1","f"
"1859",20,48,"homogenous",1.031,1,"1","f"
"1860",20,49,"absent",7.727,1,"1","f"
"1861",20,50,"heterogenous",5.482,0,"1","f"
"1862",20,51,"absent",5.783,1,"1","f"
"1863",20,52,"absent",8.912,1,"1","f"
"1864",20,53,"absent",7.525,1,"1","f"
"1865",20,54,"absent",6.991,1,"1","f"
"1866",20,55,"absent",6.879,1,"1","f"
"1867",20,56,"heterogenous",10.445,0,"1","f"
"1868",20,57,"heterogenous",8.914,0,"1","f"
"1869",20,58,"homogenous",0.871,1,"1","f"
"1870",20,59,"heterogenous",10.335,0,"1","f"
"1871",20,60,"absent",6.441,1,"1","f"
"1872",20,61,"heterogenous",5.262,0,"1","f"
"1873",20,62,"homogenous",0.785,1,"1","f"
"1874",20,63,"absent",6.447,1,"1","f"
"1875",20,64,"homogenous",0.851,1,"1","f"
"1876",20,65,"absent",5.692,1,"1","f"
"1877",20,66,"absent",6.537,1,"1","f"
"1878",20,67,"heterogenous",5.69,0,"1","f"
"1879",20,68,"absent",7.094,1,"1","f"
"1880",20,69,"absent",6.561,1,"1","f"
"1881",20,70,"absent",6.202,1,"1","f"
"1882",20,71,"absent",8.984,1,"1","f"
"1883",20,72,"absent",8.423,1,"1","f"
"1884",20,73,"absent",10.49,1,"1","f"
"1885",20,74,"homogenous",0.892,1,"1","f"
"1886",20,75,"homogenous",0.841,1,"1","f"
"1887",20,76,"heterogenous",10.663,0,"1","f"
"1888",20,77,"heterogenous",10.101,0,"1","f"
"1889",20,78,"homogenous",1.002,1,"1","f"
"1890",20,79,"absent",8.644,1,"1","f"
"1891",20,80,"absent",7.202,1,"1","f"
"1892",20,81,"homogenous",0.882,1,"1","f"
"1893",20,82,"absent",5.515,1,"1","f"
"1894",20,83,"absent",4.852,1,"1","f"
"1895",20,84,"homogenous",0.931,1,"1","f"
"1896",20,85,"absent",4.585,1,"1","f"
"1897",20,86,"heterogenous",5.434,0,"1","f"
"1898",20,87,"absent",4.888,1,"1","f"
"1899",20,88,"absent",7.296,1,"1","f"
"1900",20,89,"homogenous",0.831,1,"1","f"
"1901",20,90,"absent",6.733,1,"1","f"
"1902",20,91,"homogenous",0.849,1,"1","f"
"1903",20,92,"heterogenous",8.59,0,"1","f"
"1904",20,93,"absent",5.853,1,"1","f"
"1905",20,94,"heterogenous",7.163,0,"1","f"
"1906",20,95,"absent",7.091,1,"1","f"
"1907",20,96,"absent",9.732,1,"1","f"
"1908",21,1,"heterogenous",3.549,0,"1","r"
"1909",21,2,"absent",4.74,1,"1","r"
"1910",21,3,"homogenous",0.852,1,"1","r"
"1911",21,4,"homogenous",1.363,1,"1","r"
"1912",21,5,"heterogenous",4.382,0,"1","r"
"1913",21,6,"absent",5.203,1,"1","r"
"1914",21,7,"absent",5.105,1,"1","r"
"1915",21,8,"heterogenous",4.46,0,"1","r"
"1916",21,9,"heterogenous",2.869,0,"1","r"
"1917",21,10,"homogenous",0.929,1,"1","r"
"1918",21,11,"absent",4.953,1,"1","r"
"1919",21,12,"absent",4.032,1,"1","r"
"1920",21,13,"absent",4.549,1,"1","r"
"1921",21,14,"homogenous",1.031,1,"1","r"
"1922",21,15,"heterogenous",3.7,0,"1","r"
"1923",21,16,"heterogenous",3.65,0,"1","r"
"1924",21,17,"homogenous",1.067,1,"1","r"
"1925",21,18,"heterogenous",4.324,0,"1","r"
"1926",21,19,"homogenous",0.888,1,"1","r"
"1927",21,20,"homogenous",0.86,1,"1","r"
"1928",21,21,"heterogenous",3.906,0,"1","r"
"1929",21,22,"absent",3.083,1,"1","r"
"1930",21,23,"absent",3.14,1,"1","r"
"1931",21,24,"homogenous",1.169,1,"1","r"
"1932",21,25,"absent",4.701,1,"1","r"
"1933",21,26,"absent",5.424,1,"1","r"
"1934",21,27,"absent",4.33,1,"1","r"
"1935",21,28,"heterogenous",3.931,0,"1","r"
"1936",21,29,"absent",4.34,1,"1","r"
"1937",21,30,"absent",4.76,1,"1","r"
"1938",21,31,"homogenous",0.968,1,"1","r"
"1939",21,32,"absent",4.531,1,"1","r"
"1940",21,33,"homogenous",0.949,1,"1","r"
"1941",21,34,"absent",4.335,1,"1","r"
"1942",21,35,"heterogenous",3.293,0,"1","r"
"1943",21,36,"absent",2.902,1,"1","r"
"1944",21,37,"heterogenous",3.005,0,"1","r"
"1945",21,38,"homogenous",0.908,1,"1","r"
"1946",21,39,"absent",5.331,1,"1","r"
"1947",21,40,"heterogenous",3.125,1,"1","r"
"1948",21,41,"absent",5.212,1,"1","r"
"1949",21,42,"absent",5.371,1,"1","r"
"1950",21,43,"absent",3.191,1,"1","r"
"1951",21,44,"heterogenous",3.513,0,"1","r"
"1952",21,45,"absent",4.642,1,"1","r"
"1953",21,46,"homogenous",1.029,1,"1","r"
"1954",21,47,"homogenous",1.029,1,"1","r"
"1955",21,48,"absent",3.849,1,"1","r"
"1956",21,49,"heterogenous",2.654,0,"1","r"
"1957",21,50,"absent",3.262,1,"1","r"
"1958",21,51,"heterogenous",2.934,0,"1","r"
"1959",21,52,"absent",3.382,1,"1","r"
"1960",21,53,"heterogenous",3.651,0,"1","r"
"1961",21,54,"heterogenous",4.913,0,"1","r"
"1962",21,55,"absent",5.171,1,"1","r"
"1963",21,56,"absent",4.503,0,"1","r"
"1964",21,57,"absent",5.239,1,"1","r"
"1965",21,58,"homogenous",1.099,1,"1","r"
"1966",21,59,"absent",5.613,1,"1","r"
"1967",21,60,"absent",3.691,1,"1","r"
"1968",21,61,"absent",4.372,1,"1","r"
"1969",21,62,"absent",4.322,1,"1","r"
"1970",21,63,"absent",4.824,1,"1","r"
"1971",21,64,"absent",5.042,1,"1","r"
"1972",21,65,"absent",3.912,1,"1","r"
"1973",21,66,"homogenous",0.829,1,"1","r"
"1974",21,67,"heterogenous",4.773,0,"1","r"
"1975",21,68,"absent",4.934,1,"1","r"
"1976",21,69,"absent",5.954,1,"1","r"
"1977",21,70,"homogenous",0.988,1,"1","r"
"1978",21,71,"absent",4.471,1,"1","r"
"1979",21,72,"homogenous",1.047,1,"1","r"
"1980",21,73,"heterogenous",4.39,0,"1","r"
"1981",21,74,"heterogenous",6.664,0,"1","r"
"1982",21,75,"absent",3.894,1,"1","r"
"1983",21,76,"homogenous",0.922,1,"1","r"
"1984",21,77,"heterogenous",4.002,0,"1","r"
"1985",21,78,"absent",3.329,1,"1","r"
"1986",21,79,"homogenous",0.834,1,"1","r"
"1987",21,80,"absent",3.329,1,"1","r"
"1988",21,81,"absent",2.938,1,"1","r"
"1989",21,82,"heterogenous",3.88,0,"1","r"
"1990",21,83,"absent",2.264,1,"1","r"
"1991",21,84,"homogenous",1.057,1,"1","r"
"1992",21,85,"absent",4.011,1,"1","r"
"1993",21,86,"homogenous",1.486,1,"1","r"
"1994",21,87,"homogenous",1.301,1,"1","r"
"1995",21,88,"absent",3.601,1,"1","r"
"1996",21,89,"absent",2.911,1,"1","r"
"1997",21,90,"absent",2.83,1,"1","r"
"1998",21,91,"homogenous",0.939,1,"1","r"
"1999",21,92,"heterogenous",2.713,0,"1","r"
"2000",21,93,"absent",3.346,1,"1","r"
"2001",21,94,"heterogenous",2.33,0,"1","r"
"2002",21,95,"absent",3.362,1,"1","r"
"2003",21,96,"homogenous",1.013,1,"1","r"
"2004",22,1,"homogenous",2.52,0,"1","f"
"2005",22,2,"heterogenous",2.753,0,"1","f"
"2006",22,3,"homogenous",1.761,0,"1","f"
"2007",22,4,"absent",6.896,1,"1","f"
"2008",22,5,"heterogenous",5.353,1,"1","f"
"2009",22,6,"absent",1.679,1,"1","f"
"2010",22,7,"absent",3.081,1,"1","f"
"2011",22,8,"absent",2.469,1,"1","f"
"2012",22,9,"heterogenous",5.025,0,"1","f"
"2013",22,10,"absent",2.849,1,"1","f"
"2014",22,11,"heterogenous",6.956,1,"1","f"
"2015",22,12,"absent",8.04,0,"1","f"
"2016",22,13,"absent",6.931,0,"1","f"
"2017",22,14,"absent",7.922,0,"1","f"
"2018",22,15,"homogenous",9.212,1,"1","f"
"2019",22,16,"heterogenous",9.926,0,"1","f"
"2020",22,17,"absent",4.142,1,"1","f"
"2021",22,18,"heterogenous",11.823,1,"1","f"
"2022",22,19,"absent",7.043,1,"1","f"
"2023",22,20,"homogenous",2.501,0,"1","f"
"2024",22,21,"homogenous",1.263,0,"1","f"
"2025",22,22,"homogenous",1.182,0,"1","f"
"2026",22,23,"heterogenous",5.472,0,"1","f"
"2027",22,24,"absent",6.211,1,"1","f"
"2028",22,25,"absent",2.652,1,"1","f"
"2029",22,26,"homogenous",1.061,0,"1","f"
"2030",22,27,"homogenous",0.811,0,"1","f"
"2031",22,28,"absent",2.616,0,"1","f"
"2032",22,29,"absent",7.384,0,"1","f"
"2033",22,30,"homogenous",1.901,0,"1","f"
"2034",22,31,"absent",9.682,1,"1","f"
"2035",22,32,"absent",5.802,1,"1","f"
"2036",22,33,"absent",3.633,0,"1","f"
"2037",22,34,"heterogenous",6.451,0,"1","f"
"2038",22,35,"absent",0.749,1,"1","f"
"2039",22,36,"absent",4.774,0,"1","f"
"2040",22,37,"heterogenous",4.141,0,"1","f"
"2041",22,38,"homogenous",3.163,1,"1","f"
"2042",22,39,"heterogenous",1.037,0,"1","f"
"2043",22,40,"absent",5.744,0,"1","f"
"2044",22,41,"absent",1.458,0,"1","f"
"2045",22,42,"heterogenous",2.736,1,"1","f"
"2046",22,43,"homogenous",1.211,0,"1","f"
"2047",22,44,"heterogenous",1.123,1,"1","f"
"2048",22,45,"absent",4.801,0,"1","f"
"2049",22,46,"absent",2.8,0,"1","f"
"2050",22,47,"absent",1.817,0,"1","f"
"2051",22,48,"absent",2.971,0,"1","f"
"2052",22,49,"absent",6.145,0,"1","f"
"2053",22,50,"absent",4.591,0,"1","f"
"2054",22,51,"heterogenous",3.089,1,"1","f"
"2055",22,52,"absent",2.635,1,"1","f"
"2056",22,53,"homogenous",0.949,0,"1","f"
"2057",22,54,"homogenous",0.832,0,"1","f"
"2058",22,55,"absent",2.608,0,"1","f"
"2059",22,56,"homogenous",0.848,0,"1","f"
"2060",22,57,"heterogenous",5.777,1,"1","f"
"2061",22,58,"homogenous",0.903,0,"1","f"
"2062",22,59,"absent",3.041,0,"1","f"
"2063",22,60,"homogenous",0.815,0,"1","f"
"2064",22,61,"absent",2.515,1,"1","f"
"2065",22,62,"homogenous",0.799,0,"1","f"
"2066",22,63,"homogenous",0.66,0,"1","f"
"2067",22,64,"absent",5.78,0,"1","f"
"2068",22,65,"absent",5.79,0,"1","f"
"2069",22,66,"absent",2.712,0,"1","f"
"2070",22,67,"absent",1.583,0,"1","f"
"2071",22,68,"heterogenous",3.741,1,"1","f"
"2072",22,69,"absent",3.194,0,"1","f"
"2073",22,70,"homogenous",0.982,0,"1","f"
"2074",22,71,"heterogenous",6.51,1,"1","f"
"2075",22,72,"absent",5.607,1,"1","f"
"2076",22,73,"absent",7.6,0,"1","f"
"2077",22,74,"heterogenous",6.034,0,"1","f"
"2078",22,75,"heterogenous",2.829,1,"1","f"
"2079",22,76,"absent",7.652,0,"1","f"
"2080",22,77,"absent",3.663,0,"1","f"
"2081",22,78,"homogenous",1.074,1,"1","f"
"2082",22,79,"absent",2.149,1,"1","f"
"2083",22,80,"homogenous",0.85,1,"1","f"
"2084",22,81,"absent",7.349,1,"1","f"
"2085",22,82,"homogenous",1.111,1,"1","f"
"2086",22,83,"heterogenous",11.997,0,"1","f"
"2087",22,84,"homogenous",0.892,0,"1","f"
"2088",22,85,"heterogenous",1.05,0,"1","f"
"2089",22,86,"heterogenous",3.208,0,"1","f"
"2090",22,87,"absent",7.665,0,"1","f"
"2091",22,88,"absent",1.002,0,"1","f"
"2092",22,89,"absent",1.726,1,"1","f"
"2093",22,90,"heterogenous",1.952,0,"1","f"
"2094",22,91,"absent",11.005,0,"1","f"
"2095",22,92,"homogenous",2.4,1,"1","f"
"2096",22,93,"absent",6.56,1,"1","f"
"2097",22,94,"heterogenous",5.167,1,"1","f"
"2098",22,95,"absent",12.874,0,"1","f"
"2099",22,96,"heterogenous",5.529,0,"1","f"
"2100",23,1,"heterogenous",2.022,0,"1","r"
"2101",23,2,"absent",4.702,1,"1","r"
"2102",23,3,"absent",2.393,1,"1","r"
"2103",23,4,"heterogenous",1.87,0,"1","r"
"2104",23,5,"homogenous",1.032,1,"1","r"
"2105",23,6,"heterogenous",2.99,1,"1","r"
"2106",23,7,"absent",2.717,1,"1","r"
"2107",23,8,"homogenous",0.83,1,"1","r"
"2108",23,9,"absent",1.511,1,"1","r"
"2109",23,10,"homogenous",0.86,1,"1","r"
"2110",23,11,"absent",1.209,1,"1","r"
"2111",23,12,"heterogenous",2.455,0,"1","r"
"2112",23,13,"heterogenous",1.822,1,"1","r"
"2113",23,14,"homogenous",0.781,1,"1","r"
"2114",23,15,"absent",1.409,1,"1","r"
"2115",23,16,"absent",2.171,1,"1","r"
"2116",23,17,"homogenous",0.882,1,"1","r"
"2117",23,18,"absent",0.997,1,"1","r"
"2118",23,19,"homogenous",0.706,1,"1","r"
"2119",23,20,"heterogenous",0.911,0,"1","r"
"2120",23,21,"absent",1.887,1,"1","r"
"2121",23,22,"heterogenous",2.392,1,"1","r"
"2122",23,23,"homogenous",0.802,1,"1","r"
"2123",23,24,"heterogenous",2,1,"1","r"
"2124",23,25,"absent",3.253,1,"1","r"
"2125",23,26,"absent",1.645,1,"1","r"
"2126",23,27,"heterogenous",2.222,0,"1","r"
"2127",23,28,"absent",4.07,0,"1","r"
"2128",23,29,"homogenous",0.903,1,"1","r"
"2129",23,30,"absent",3.694,0,"1","r"
"2130",23,31,"absent",3.011,1,"1","r"
"2131",23,32,"heterogenous",5.161,0,"1","r"
"2132",23,33,"homogenous",0.959,1,"1","r"
"2133",23,34,"heterogenous",2.905,0,"1","r"
"2134",23,35,"absent",2.05,1,"1","r"
"2135",23,36,"heterogenous",2.271,0,"1","r"
"2136",23,37,"homogenous",1.032,1,"1","r"
"2137",23,38,"homogenous",0.711,1,"1","r"
"2138",23,39,"absent",1.662,1,"1","r"
"2139",23,40,"heterogenous",3.142,0,"1","r"
"2140",23,41,"absent",6.889,0,"1","r"
"2141",23,42,"homogenous",0.96,1,"1","r"
"2142",23,43,"absent",2.307,1,"1","r"
"2143",23,44,"heterogenous",5.27,0,"1","r"
"2144",23,45,"heterogenous",4.224,1,"1","r"
"2145",23,46,"homogenous",0.802,1,"1","r"
"2146",23,47,"absent",4.43,0,"1","r"
"2147",23,48,"homogenous",0.71,1,"1","r"
"2148",23,49,"absent",1.799,0,"1","r"
"2149",23,50,"heterogenous",3.652,0,"1","r"
"2150",23,51,"absent",3.901,0,"1","r"
"2151",23,52,"absent",4.41,1,"1","r"
"2152",23,53,"homogenous",0.79,1,"1","r"
"2153",23,54,"absent",3.839,1,"1","r"
"2154",23,55,"absent",2.7,1,"1","r"
"2155",23,56,"heterogenous",2.432,0,"1","r"
"2156",23,57,"homogenous",0.673,1,"1","r"
"2157",23,58,"homogenous",0.681,1,"1","r"
"2158",23,59,"absent",1.466,1,"1","r"
"2159",23,60,"absent",1.363,1,"1","r"
"2160",23,61,"homogenous",0.869,1,"1","r"
"2161",23,62,"absent",4.129,1,"1","r"
"2162",23,63,"homogenous",0.791,1,"1","r"
"2163",23,64,"absent",1.782,1,"1","r"
"2164",23,65,"homogenous",0.762,1,"1","r"
"2165",23,66,"absent",1.096,1,"1","r"
"2166",23,67,"homogenous",0.762,1,"1","r"
"2167",23,68,"absent",1.223,1,"1","r"
"2168",23,69,"absent",1.163,1,"1","r"
"2169",23,70,"heterogenous",3.531,1,"1","r"
"2170",23,71,"absent",5.361,1,"1","r"
"2171",23,72,"homogenous",0.723,1,"1","r"
"2172",23,73,"absent",4.524,1,"1","r"
"2173",23,74,"homogenous",0.855,1,"1","r"
"2174",23,75,"absent",2.92,1,"1","r"
"2175",23,76,"absent",2.08,1,"1","r"
"2176",23,77,"absent",2.62,1,"1","r"
"2177",23,78,"absent",3.024,1,"1","r"
"2178",23,79,"homogenous",0.671,1,"1","r"
"2179",23,80,"heterogenous",2.2,0,"1","r"
"2180",23,81,"heterogenous",5.543,1,"1","r"
"2181",23,82,"absent",1.419,0,"1","r"
"2182",23,83,"absent",3.435,0,"1","r"
"2183",23,84,"absent",3.333,1,"1","r"
"2184",23,85,"heterogenous",3.059,0,"1","r"
"2185",23,86,"absent",2.262,0,"1","r"
"2186",23,87,"absent",1.301,1,"1","r"
"2187",23,88,"heterogenous",2.822,0,"1","r"
"2188",23,89,"absent",1.048,0,"1","r"
"2189",23,90,"absent",3.307,1,"1","r"
"2190",23,91,"absent",3.681,1,"1","r"
"2191",23,92,"absent",2.503,1,"1","r"
"2192",23,93,"heterogenous",3.751,0,"1","r"
"2193",23,94,"heterogenous",2.813,0,"1","r"
"2194",23,95,"absent",4.608,1,"1","r"
"2195",23,96,"absent",2.478,1,"1","r"
"2196",24,1,"homogenous",10.126,0,"1","f"
"2197",24,2,"absent",27.491,1,"1","f"
"2198",24,3,"homogenous",3.976,1,"1","f"
"2199",24,4,"absent",13.665,1,"1","f"
"2200",24,5,"heterogenous",7.27,0,"1","f"
"2201",24,6,"absent",8.222,1,"1","f"
"2202",24,7,"heterogenous",7.861,1,"1","f"
"2203",24,8,"absent",6.004,1,"1","f"
"2204",24,9,"absent",8.961,1,"1","f"
"2205",24,10,"homogenous",3.444,1,"1","f"
"2206",24,11,"absent",6.643,1,"1","f"
"2207",24,12,"heterogenous",7.409,1,"1","f"
"2208",24,13,"heterogenous",7.513,0,"1","f"
"2209",24,14,"absent",9.14,1,"1","f"
"2210",24,15,"homogenous",2.351,1,"1","f"
"2211",24,17,"absent",4.893,1,"1","f"
"2212",24,18,"homogenous",1.35,1,"1","f"
"2213",24,19,"heterogenous",4.332,0,"1","f"
"2214",24,20,"heterogenous",3.121,0,"1","f"
"2215",24,21,"homogenous",1.407,1,"1","f"
"2216",24,22,"absent",2.593,0,"1","f"
"2217",24,23,"absent",2.531,1,"1","f"
"2218",24,24,"absent",6.612,0,"1","f"
"2219",24,25,"absent",2.034,1,"1","f"
"2220",24,26,"heterogenous",3.144,0,"1","f"
"2221",24,27,"heterogenous",11.796,1,"1","f"
"2222",24,28,"absent",9.286,0,"1","f"
"2223",24,29,"homogenous",1.456,1,"1","f"
"2224",24,30,"absent",7.13,1,"1","f"
"2225",24,31,"absent",9.705,0,"1","f"
"2226",24,32,"absent",4.942,1,"1","f"
"2227",24,33,"heterogenous",11.875,0,"1","f"
"2228",24,34,"heterogenous",5.426,0,"1","f"
"2229",24,35,"homogenous",1.872,1,"1","f"
"2230",24,36,"absent",1.524,1,"1","f"
"2231",24,37,"homogenous",1.078,1,"1","f"
"2232",24,38,"absent",2.18,1,"1","f"
"2233",24,39,"absent",9.29,0,"1","f"
"2234",24,40,"absent",2.053,1,"1","f"
"2235",24,41,"absent",5.38,1,"1","f"
"2236",24,42,"absent",3.647,1,"1","f"
"2237",24,43,"heterogenous",2.892,0,"1","f"
"2238",24,44,"absent",14.016,1,"1","f"
"2239",24,45,"absent",11.826,1,"1","f"
"2240",24,46,"heterogenous",19.415,0,"1","f"
"2241",24,48,"heterogenous",31.629,0,"1","f"
"2242",24,49,"absent",24.697,1,"1","f"
"2243",24,50,"absent",31.29,1,"1","f"
"2244",24,51,"homogenous",1.868,1,"1","f"
"2245",24,52,"heterogenous",4.141,0,"1","f"
"2246",24,53,"heterogenous",1.724,1,"1","f"
"2247",24,54,"absent",1.181,0,"1","f"
"2248",24,55,"heterogenous",1.426,0,"1","f"
"2249",24,56,"absent",1.617,0,"1","f"
"2250",24,57,"absent",2.061,1,"1","f"
"2251",24,58,"heterogenous",10.819,0,"1","f"
"2252",24,59,"heterogenous",16.702,0,"1","f"
"2253",24,60,"absent",5.546,1,"1","f"
"2254",24,61,"absent",6.591,1,"1","f"
"2255",24,62,"homogenous",3.304,1,"1","f"
"2256",24,63,"absent",11.83,1,"1","f"
"2257",24,64,"absent",11.386,1,"1","f"
"2258",24,65,"homogenous",1.224,1,"1","f"
"2259",24,66,"absent",19.435,0,"1","f"
"2260",24,67,"absent",18.847,1,"1","f"
"2261",24,68,"heterogenous",14.078,0,"1","f"
"2262",24,69,"homogenous",2.703,1,"1","f"
"2263",24,70,"absent",4.686,1,"1","f"
"2264",24,71,"absent",0.575,1,"1","f"
"2265",24,72,"absent",1.6,1,"1","f"
"2266",24,73,"homogenous",1.139,1,"1","f"
"2267",24,74,"homogenous",0.969,1,"1","f"
"2268",24,75,"absent",1.259,1,"1","f"
"2269",24,76,"homogenous",1.203,1,"1","f"
"2270",24,77,"absent",1.112,1,"1","f"
"2271",24,78,"homogenous",2.305,1,"1","f"
"2272",24,79,"homogenous",1.197,1,"1","f"
"2273",24,80,"heterogenous",1.663,0,"1","f"
"2274",24,81,"homogenous",1.05,1,"1","f"
"2275",24,82,"absent",1.106,1,"1","f"
"2276",24,83,"homogenous",0.835,1,"1","f"
"2277",24,84,"homogenous",0.951,1,"1","f"
"2278",24,85,"heterogenous",1.355,0,"1","f"
"2279",24,86,"absent",2.012,1,"1","f"
"2280",24,87,"absent",1.017,1,"1","f"
"2281",24,88,"absent",1.787,1,"1","f"
"2282",24,89,"heterogenous",0.823,0,"1","f"
"2283",24,90,"absent",1.224,1,"1","f"
"2284",24,91,"heterogenous",0.977,0,"1","f"
"2285",24,92,"absent",1.607,1,"1","f"
"2286",24,93,"homogenous",0.893,1,"1","f"
"2287",24,94,"heterogenous",0.813,0,"1","f"
"2288",24,95,"absent",0.968,1,"1","f"
"2289",24,96,"absent",0.962,1,"1","f"
"2290",25,1,"absent",1.705,1,"1","r"
"2291",25,2,"absent",1.341,0,"1","r"
"2292",25,3,"homogenous",1.179,1,"1","r"
"2293",25,4,"homogenous",1.025,1,"1","r"
"2294",25,5,"heterogenous",1.799,0,"1","r"
"2295",25,6,"homogenous",1.179,1,"1","r"
"2296",25,7,"heterogenous",1.381,1,"1","r"
"2297",25,8,"absent",1.87,1,"1","r"
"2298",25,9,"absent",1.503,1,"1","r"
"2299",25,10,"homogenous",1.066,1,"1","r"
"2300",25,11,"absent",1.74,1,"1","r"
"2301",25,12,"heterogenous",1.384,0,"1","r"
"2302",25,13,"absent",1.544,1,"1","r"
"2303",25,14,"absent",1.627,1,"1","r"
"2304",25,15,"homogenous",0.766,1,"1","r"
"2305",25,16,"heterogenous",1.882,0,"1","r"
"2306",25,17,"absent",1.616,1,"1","r"
"2307",25,18,"absent",1.5,1,"1","r"
"2308",25,19,"absent",1.311,1,"1","r"
"2309",25,20,"absent",1.5,0,"1","r"
"2310",25,21,"heterogenous",1.887,0,"1","r"
"2311",25,22,"heterogenous",3.241,0,"1","r"
"2312",25,23,"absent",3.362,1,"1","r"
"2313",25,24,"absent",1.677,1,"1","r"
"2314",25,25,"homogenous",0.968,1,"1","r"
"2315",25,26,"absent",1.659,1,"1","r"
"2316",25,27,"homogenous",0.807,1,"1","r"
"2317",25,28,"absent",1.679,1,"1","r"
"2318",25,29,"absent",0.798,1,"1","r"
"2319",25,30,"absent",1.263,1,"1","r"
"2320",25,31,"absent",3.709,1,"1","r"
"2321",25,32,"absent",1.418,0,"1","r"
"2322",25,33,"heterogenous",2.673,0,"1","r"
"2323",25,34,"homogenous",0.862,1,"1","r"
"2324",25,35,"heterogenous",1.371,0,"1","r"
"2325",25,36,"homogenous",0.701,1,"1","r"
"2326",25,37,"heterogenous",2.276,0,"1","r"
"2327",25,38,"homogenous",0.738,1,"1","r"
"2328",25,39,"absent",2.131,1,"1","r"
"2329",25,40,"heterogenous",1.586,1,"1","r"
"2330",25,41,"heterogenous",1.812,0,"1","r"
"2331",25,42,"absent",1.598,1,"1","r"
"2332",25,43,"absent",1.232,1,"1","r"
"2333",25,44,"absent",1.648,1,"1","r"
"2334",25,45,"absent",1.923,1,"1","r"
"2335",25,46,"heterogenous",1.291,0,"1","r"
"2336",25,47,"absent",2.439,1,"1","r"
"2337",25,48,"homogenous",0.832,1,"1","r"
"2338",25,49,"homogenous",0.64,1,"1","r"
"2339",25,50,"homogenous",0.704,1,"1","r"
"2340",25,51,"absent",1.439,1,"1","r"
"2341",25,52,"homogenous",0.789,1,"1","r"
"2342",25,53,"homogenous",0.693,1,"1","r"
"2343",25,54,"absent",1.943,1,"1","r"
"2344",25,55,"absent",1.219,0,"1","r"
"2345",25,56,"absent",1.592,1,"1","r"
"2346",25,57,"heterogenous",1.682,0,"1","r"
"2347",25,58,"absent",1.489,1,"1","r"
"2348",25,59,"absent",1.373,1,"1","r"
"2349",25,60,"absent",1.893,1,"1","r"
"2350",25,61,"absent",1.881,1,"1","r"
"2351",25,62,"heterogenous",1.426,0,"1","r"
"2352",25,63,"absent",2.971,1,"1","r"
"2353",25,64,"absent",2.353,1,"1","r"
"2354",25,65,"homogenous",0.617,1,"1","r"
"2355",25,66,"absent",1.58,1,"1","r"
"2356",25,67,"homogenous",1.059,1,"1","r"
"2357",25,68,"heterogenous",1.33,0,"1","r"
"2358",25,69,"absent",2.472,1,"1","r"
"2359",25,70,"heterogenous",1.541,0,"1","r"
"2360",25,71,"homogenous",1.201,1,"1","r"
"2361",25,72,"absent",1.272,1,"1","r"
"2362",25,73,"homogenous",0.782,1,"1","r"
"2363",25,74,"heterogenous",1.037,0,"1","r"
"2364",25,75,"absent",0.991,1,"1","r"
"2365",25,76,"absent",2.051,1,"1","r"
"2366",25,77,"heterogenous",0.879,0,"1","r"
"2367",25,78,"heterogenous",1.29,0,"1","r"
"2368",25,79,"heterogenous",1.215,0,"1","r"
"2369",25,80,"homogenous",0.91,1,"1","r"
"2370",25,81,"absent",1.23,1,"1","r"
"2371",25,82,"absent",0.951,1,"1","r"
"2372",25,83,"absent",1.411,1,"1","r"
"2373",25,84,"homogenous",0.919,1,"1","r"
"2374",25,85,"homogenous",1.169,1,"1","r"
"2375",25,86,"heterogenous",0.912,0,"1","r"
"2376",25,87,"absent",0.944,1,"1","r"
"2377",25,88,"heterogenous",1.659,0,"1","r"
"2378",25,89,"absent",1.876,1,"1","r"
"2379",25,90,"absent",2.382,0,"1","r"
"2380",25,91,"homogenous",0.698,1,"1","r"
"2381",25,92,"homogenous",0.775,1,"1","r"
"2382",25,93,"heterogenous",1.935,0,"1","r"
"2383",25,94,"heterogenous",1.039,0,"1","r"
"2384",25,95,"absent",1.65,0,"1","r"
"2385",25,96,"absent",1.966,1,"1","r"
"2386",26,1,"homogenous",1.301,1,"1","f"
"2387",26,2,"absent",23.27,1,"1","f"
"2388",26,3,"absent",35.034,1,"1","f"
"2389",26,4,"homogenous",1.151,1,"1","f"
"2390",26,5,"heterogenous",19.336,0,"1","f"
"2391",26,6,"absent",27.023,1,"1","f"
"2392",26,7,"absent",25.757,1,"1","f"
"2393",26,8,"absent",25.926,1,"1","f"
"2394",26,9,"heterogenous",11.571,1,"1","f"
"2395",26,10,"homogenous",1.421,1,"1","f"
"2396",26,11,"absent",25.72,1,"1","f"
"2397",26,12,"absent",21.827,1,"1","f"
"2398",26,13,"absent",20.717,1,"1","f"
"2399",26,14,"absent",25.378,1,"1","f"
"2400",26,15,"absent",29.271,1,"1","f"
"2401",26,16,"absent",29.658,1,"1","f"
"2402",26,17,"heterogenous",29.2,0,"1","f"
"2403",26,18,"homogenous",1.381,1,"1","f"
"2404",26,19,"absent",47.866,1,"1","f"
"2405",26,20,"heterogenous",26.38,1,"1","f"
"2406",26,21,"absent",10.479,0,"1","f"
"2407",26,22,"absent",2.431,0,"1","f"
"2408",26,23,"absent",4.061,0,"1","f"
"2409",26,24,"absent",35.833,1,"1","f"
"2410",26,25,"heterogenous",20.725,1,"1","f"
"2411",26,26,"heterogenous",11.044,1,"1","f"
"2412",26,27,"absent",39.899,1,"1","f"
"2413",26,28,"homogenous",1.259,1,"1","f"
"2414",26,29,"absent",45.894,1,"1","f"
"2415",26,30,"heterogenous",29.184,0,"1","f"
"2416",26,31,"heterogenous",26.587,0,"1","f"
"2417",26,32,"absent",23.954,1,"1","f"
"2418",26,33,"absent",27.651,1,"1","f"
"2419",26,34,"absent",27.821,1,"1","f"
"2420",26,35,"homogenous",1.083,1,"1","f"
"2421",26,36,"heterogenous",6.082,1,"1","f"
"2422",26,37,"absent",18.284,1,"1","f"
"2423",26,38,"heterogenous",21.829,0,"1","f"
"2424",26,40,"homogenous",1.733,1,"1","f"
"2425",26,41,"homogenous",1.417,1,"1","f"
"2426",26,42,"homogenous",1.55,1,"1","f"
"2427",26,43,"homogenous",1.525,1,"1","f"
"2428",26,44,"heterogenous",16.683,1,"1","f"
"2429",26,45,"absent",22.888,1,"1","f"
"2430",26,46,"absent",25.058,1,"1","f"
"2431",26,47,"absent",22.356,1,"1","f"
"2432",26,48,"heterogenous",14.434,1,"1","f"
"2433",26,49,"absent",32.672,1,"1","f"
"2434",26,50,"homogenous",1.022,1,"1","f"
"2435",26,51,"absent",37.853,1,"1","f"
"2436",26,52,"heterogenous",7.171,1,"1","f"
"2437",26,53,"absent",37.694,1,"1","f"
"2438",26,54,"heterogenous",26.004,0,"1","f"
"2439",26,55,"absent",32.09,1,"1","f"
"2440",26,56,"heterogenous",23.597,0,"1","f"
"2441",26,57,"heterogenous",14.826,1,"1","f"
"2442",26,58,"absent",30.91,1,"1","f"
"2443",26,59,"absent",24.485,1,"1","f"
"2444",26,60,"homogenous",1.163,1,"1","f"
"2445",26,61,"absent",18.145,1,"1","f"
"2446",26,62,"homogenous",0.908,1,"1","f"
"2447",26,63,"absent",22.927,1,"1","f"
"2448",26,64,"homogenous",2.17,1,"1","f"
"2449",26,65,"homogenous",1.37,1,"1","f"
"2450",26,66,"heterogenous",26.277,0,"1","f"
"2451",26,67,"absent",32.342,1,"1","f"
"2452",26,68,"heterogenous",27.319,0,"1","f"
"2453",26,69,"absent",26.51,1,"1","f"
"2454",26,70,"homogenous",1.153,1,"1","f"
"2455",26,71,"absent",30.857,1,"1","f"
"2456",26,72,"absent",47.153,1,"1","f"
"2457",26,73,"heterogenous",21.784,1,"1","f"
"2458",26,74,"heterogenous",20.009,1,"1","f"
