subNum	 block	 trialNo	 fixNo	 xFix	 xFixFlipped	 yFix	 fixStartTime	 fixEndTime	 targPresent	 targSide	 easySide	 RT	 accuracy
1	 1	 1	 1	 527	 -15	 367	 1111957	 1113331	 1	 left	 L	 1.215	 1
1	 1	 2	 1	 509	 3	 372	 1114972	 1115509	 0	 x	 L	 1.270	 1
1	 1	 3	 1	 507	 5	 383	 1118292	 1119335	 1	 left	 L	 0.920	 0
1	 1	 4	 1	 507	 5	 388	 1121275	 1122403	 0	 x	 L	 1.216	 0
1	 1	 5	 1	 502	 10	 379	 1126755	 1127710	 1	 right	 L	 1.881	 1
1	 1	 6	 1	 511	 -1	 382	 1131088	 1131688	 0	 x	 R	 1.460	 0
1	 1	 7	 1	 509	 3	 384	 1135910	 1136652	 0	 x	 L	 1.819	 1
1	 1	 8	 1	 509	 -3	 383	 1140079	 1141211	 1	 right	 R	 1.022	 1
1	 1	 9	 1	 510	 2	 388	 1143960	 1145183	 1	 right	 L	 1.079	 0
1	 1	 10	 1	 510	 2	 392	 1147421	 1148239	 1	 right	 L	 1.483	 1
1	 1	 11	 1	 512	 0	 392	 1151455	 1152485	 0	 x	 R	 1.321	 0
1	 1	 12	 1	 510	 2	 378	 1155226	 1156246	 0	 x	 L	 1.632	 0
1	 1	 13	 1	 503	 -9	 383	 1159204	 1160088	 1	 right	 R	 0.774	 1
1	 1	 14	 1	 503	 -9	 379	 1162426	 1162901	 1	 right	 R	 0.944	 1
1	 1	 15	 1	 506	 -6	 380	 1166618	 1167764	 0	 x	 R	 1.024	 0
1	 1	 16	 1	 502	 10	 379	 1169899	 1171113	 0	 x	 L	 1.103	 1
1	 1	 17	 1	 503	 -9	 387	 1173155	 1174164	 1	 right	 R	 0.899	 1
1	 1	 18	 1	 503	 9	 393	 1176093	 1176935	 1	 left	 L	 0.732	 1
1	 1	 19	 1	 493	 19	 395	 1179277	 1180036	 1	 left	 L	 0.650	 1
1	 1	 20	 1	 496	 -16	 388	 1182265	 1183397	 1	 left	 R	 1.022	 1
1	 1	 21	 1	 503	 9	 390	 1185738	 1186763	 0	 x	 L	 1.181	 1
1	 1	 22	 1	 509	 3	 387	 1189269	 1190542	 0	 x	 L	 1.151	 0
1	 1	 23	 1	 501	 -11	 387	 1192878	 1194212	 0	 x	 R	 1.223	 1
1	 1	 24	 1	 502	 -10	 392	 1196444	 1197943	 0	 x	 R	 1.389	 1
1	 1	 25	 1	 498	 14	 387	 1200085	 1201417	 0	 x	 L	 1.210	 0
1	 1	 26	 1	 499	 -13	 391	 1203753	 1205194	 1	 left	 R	 1.322	 0
1	 1	 27	 1	 501	 11	 391	 1208026	 1208889	 0	 x	 L	 1.442	 1
1	 1	 28	 1	 503	 -9	 388	 1211618	 1213269	 0	 x	 R	 1.541	 1
1	 1	 29	 1	 499	 -13	 403	 1215209	 1216090	 1	 right	 R	 0.770	 1
1	 1	 30	 1	 502	 -10	 389	 1217931	 1219162	 0	 x	 R	 1.121	 1
1	 1	 31	 1	 502	 10	 390	 1221098	 1223023	 0	 x	 L	 1.815	 1
1	 1	 32	 1	 502	 10	 400	 1225060	 1226014	 1	 left	 L	 0.844	 1
1	 1	 33	 1	 506	 -6	 386	 1227952	 1229245	 0	 x	 R	 1.183	 1
1	 1	 34	 1	 495	 17	 390	 1231086	 1231916	 0	 x	 L	 0.720	 1
1	 1	 35	 1	 497	 15	 396	 1233753	 1234618	 1	 right	 L	 0.744	 0
1	 1	 36	 1	 499	 -13	 407	 1236458	 1237799	 0	 x	 R	 1.350	 1
1	 1	 37	 1	 504	 -8	 395	 1240459	 1241650	 0	 x	 R	 1.081	 1
1	 1	 38	 1	 503	 -9	 393	 1244089	 1245351	 1	 left	 R	 1.142	 0
1	 1	 39	 1	 501	 11	 397	 1247582	 1249204	 0	 x	 L	 1.500	 0
1	 1	 40	 1	 496	 16	 397	 1251540	 1252545	 1	 left	 L	 0.895	 1
1	 1	 41	 1	 498	 -14	 390	 1254484	 1256186	 1	 left	 R	 1.591	 1
1	 1	 42	 1	 495	 17	 394	 1257923	 1259217	 1	 right	 L	 1.183	 1
1	 1	 43	 1	 502	 -10	 391	 1261457	 1263019	 0	 x	 R	 1.451	 1
1	 1	 44	 1	 495	 -17	 396	 1264858	 1265940	 1	 right	 R	 0.971	 1
1	 1	 45	 1	 496	 16	 402	 1268080	 1269341	 0	 x	 L	 1.150	 1
1	 1	 46	 1	 498	 -14	 396	 1271183	 1272531	 1	 left	 R	 1.229	 0
1	 1	 47	 1	 497	 -15	 398	 1274470	 1275373	 1	 right	 R	 0.793	 1
1	 1	 48	 1	 495	 17	 403	 1277322	 1278181	 0	 x	 L	 1.422	 1
1	 1	 49	 1	 487	 25	 397	 1280696	 1282156	 0	 x	 L	 1.349	 1
1	 1	 50	 1	 488	 24	 394	 1284294	 1285527	 0	 x	 L	 1.122	 1
1	 1	 51	 1	 504	 8	 394	 1287467	 1288679	 1	 right	 L	 1.098	 1
1	 1	 52	 1	 502	 10	 395	 1290514	 1291798	 1	 right	 L	 1.165	 0
1	 1	 53	 1	 500	 12	 399	 1293737	 1294701	 1	 left	 L	 0.854	 1
1	 1	 54	 1	 494	 -18	 397	 1296943	 1298583	 0	 x	 R	 1.528	 1
1	 1	 55	 1	 510	 2	 397	 1301220	 1302484	 0	 x	 L	 1.152	 1
1	 1	 56	 1	 497	 15	 403	 1304623	 1305615	 1	 right	 L	 0.882	 1
1	 1	 57	 1	 493	 -19	 396	 1307855	 1309536	 0	 x	 R	 1.561	 0
1	 1	 58	 1	 497	 15	 398	 1311474	 1311871	 0	 x	 L	 1.603	 0
1	 1	 59	 1	 494	 18	 395	 1316335	 1317760	 0	 x	 L	 1.314	 1
1	 1	 60	 1	 493	 -19	 391	 1319796	 1321251	 0	 x	 R	 1.344	 1
1	 1	 61	 1	 512	 0	 407	 1323290	 1323878	 1	 left	 R	 1.092	 0
1	 1	 62	 1	 500	 12	 389	 1326295	 1327224	 1	 left	 L	 0.818	 1
1	 1	 63	 1	 496	 16	 389	 1328663	 1329539	 0	 x	 L	 1.151	 1
1	 1	 64	 1	 497	 -15	 395	 1331362	 1333076	 1	 left	 R	 1.603	 1
1	 1	 65	 1	 496	 -16	 390	 1334714	 1335507	 0	 x	 R	 1.471	 0
1	 1	 66	 1	 499	 -13	 391	 1338247	 1339136	 0	 x	 R	 1.270	 1
1	 1	 67	 1	 498	 14	 390	 1341665	 1342970	 1	 left	 L	 1.193	 1
1	 1	 68	 1	 496	 -16	 394	 1344805	 1345528	 0	 x	 R	 1.014	 1
1	 1	 69	 1	 491	 -21	 397	 1348267	 1349152	 0	 x	 R	 0.774	 1
1	 1	 70	 1	 513	 -1	 396	 1351293	 1352413	 1	 right	 L	 1.009	 1
1	 1	 71	 1	 505	 -7	 395	 1354950	 1355795	 1	 right	 R	 0.733	 1
1	 1	 72	 1	 500	 -12	 395	 1356931	 1357876	 0	 x	 R	 0.832	 1
1	 1	 73	 1	 507	 5	 387	 1361417	 1362487	 1	 right	 L	 0.959	 1
1	 1	 74	 1	 493	 -19	 400	 1364725	 1365879	 1	 left	 R	 1.032	 0
1	 1	 75	 1	 489	 23	 400	 1367414	 1368361	 0	 x	 L	 0.824	 0
1	 1	 76	 1	 487	 25	 394	 1370098	 1371582	 0	 x	 L	 1.372	 1
1	 1	 77	 1	 502	 10	 394	 1373418	 1374438	 0	 x	 L	 1.302	 1
1	 1	 78	 1	 494	 -18	 394	 1376367	 1377323	 1	 right	 R	 0.845	 1
1	 1	 79	 1	 500	 -12	 390	 1378462	 1379227	 1	 left	 R	 0.940	 0
1	 1	 80	 1	 494	 18	 388	 1381761	 1382715	 1	 right	 L	 1.182	 0
1	 1	 81	 1	 493	 19	 387	 1385321	 1386057	 1	 left	 L	 1.124	 1
1	 1	 82	 1	 510	 -2	 361	 1403097	 1403934	 0	 x	 R	 0.725	 1
1	 1	 83	 1	 511	 -1	 370	 1406068	 1406729	 1	 right	 R	 0.655	 1
1	 1	 84	 1	 523	 11	 382	 1410172	 1410744	 1	 right	 R	 0.772	 1
1	 1	 85	 1	 513	 1	 390	 1413296	 1414082	 1	 left	 R	 0.890	 0
1	 1	 86	 1	 501	 -11	 393	 1416045	 1417111	 1	 left	 R	 0.941	 0
1	 1	 87	 1	 510	 2	 387	 1418847	 1420219	 0	 x	 L	 1.251	 0
1	 1	 88	 1	 517	 5	 387	 1422358	 1423681	 1	 left	 R	 1.201	 0
1	 1	 89	 1	 518	 -6	 390	 1425918	 1426744	 1	 left	 L	 1.793	 1
1	 1	 90	 1	 508	 -4	 387	 1429357	 1431674	 0	 x	 R	 2.205	 1
1	 1	 91	 1	 498	 14	 389	 1433210	 1434235	 1	 left	 L	 0.913	 1
1	 1	 92	 1	 506	 -6	 392	 1435775	 1436596	 1	 right	 R	 0.709	 1
1	 1	 93	 1	 497	 -15	 390	 1437935	 1439387	 0	 x	 R	 1.340	 1
1	 1	 94	 1	 496	 16	 385	 1441222	 1441630	 1	 right	 L	 1.104	 1
1	 1	 95	 1	 510	 -2	 393	 1443774	 1444954	 0	 x	 R	 1.223	 1
1	 1	 96	 1	 510	 -2	 392	 1446845	 1447660	 0	 x	 R	 1.304	 1
2	 1	 1	 1	 525	 -13	 382	 884319	 884762	 1	 left	 L	 2.324	 0
2	 1	 2	 1	 523	 11	 384	 892217	 892647	 1	 right	 R	 1.980	 1
2	 1	 3	 1	 528	 16	 384	 896635	 897060	 0	 x	 R	 10.746	 1
2	 1	 4	 1	 525	 13	 387	 911930	 912402	 1	 left	 R	 9.477	 1
2	 1	 5	 1	 527	 15	 385	 922554	 922774	 1	 left	 R	 7.016	 1
2	 1	 6	 1	 517	 -5	 378	 932923	 933382	 0	 x	 L	 13.383	 0
2	 1	 7	 1	 532	 -20	 381	 948167	 948673	 1	 left	 L	 1.871	 1
2	 1	 8	 1	 511	 1	 365	 951286	 951656	 1	 right	 L	 16.508	 0
2	 1	 9	 1	 521	 9	 384	 968893	 969306	 0	 x	 R	 18.368	 1
2	 1	 10	 1	 520	 -8	 379	 988324	 988759	 0	 x	 L	 19.315	 1
2	 1	 11	 1	 528	 16	 385	 1008696	 1009070	 1	 right	 R	 1.485	 1
2	 1	 12	 1	 530	 -18	 387	 1011433	 1011957	 1	 right	 L	 16.264	 0
2	 1	 13	 1	 522	 -10	 395	 1029459	 1029925	 1	 right	 L	 12.697	 1
2	 1	 14	 1	 532	 20	 390	 1043311	 1043676	 1	 left	 R	 21.980	 0
2	 1	 15	 1	 525	 -13	 385	 1067150	 1067408	 0	 x	 L	 27.831	 1
2	 1	 16	 1	 526	 -14	 390	 1097134	 1097577	 1	 left	 L	 1.441	 1
2	 1	 17	 1	 527	 15	 384	 1100726	 1101115	 0	 x	 R	 22.427	 1
2	 1	 18	 1	 526	 14	 387	 1124412	 1124888	 0	 x	 R	 18.689	 1
2	 1	 19	 1	 521	 9	 390	 1144180	 1144597	 0	 x	 R	 12.146	 1
2	 1	 20	 1	 519	 7	 387	 1158876	 1159270	 1	 right	 R	 1.403	 1
2	 1	 21	 1	 518	 6	 386	 1161825	 1162265	 0	 x	 R	 9.598	 1
2	 1	 22	 1	 512	 0	 379	 1172466	 1172729	 0	 x	 R	 12.882	 1
2	 1	 23	 1	 420	 92	 351	 1186619	 1186825	 0	 x	 L	 18.280	 1
2	 1	 24	 1	 512	 0	 373	 1205753	 1206185	 0	 x	 R	 13.038	 1
2	 1	 25	 1	 517	 -5	 383	 1220742	 1221183	 1	 left	 L	 1.460	 1
2	 1	 26	 1	 510	 -2	 372	 1223453	 1223827	 1	 left	 R	 9.443	 1
2	 1	 27	 1	 517	 5	 380	 1234648	 1235025	 1	 right	 R	 1.259	 1
2	 1	 28	 1	 523	 11	 378	 1237456	 1237921	 1	 left	 R	 21.038	 0
2	 1	 29	 1	 528	 -16	 385	 1260044	 1260445	 1	 left	 L	 1.504	 1
2	 1	 30	 1	 508	 4	 382	 1262683	 1263061	 0	 x	 L	 15.269	 1
2	 1	 31	 1	 518	 -6	 378	 1278903	 1279399	 0	 x	 L	 16.527	 1
2	 1	 32	 1	 524	 -12	 381	 1296979	 1297521	 0	 x	 L	 13.807	 1
2	 1	 33	 1	 517	 5	 382	 1312637	 1313025	 0	 x	 R	 15.004	 1
2	 1	 34	 1	 515	 -3	 379	 1329089	 1329523	 0	 x	 L	 10.167	 1
2	 1	 35	 1	 517	 -5	 377	 1340808	 1341361	 1	 right	 L	 18.096	 0
2	 1	 36	 1	 467	 -45	 277	 1360249	 1360525	 0	 x	 R	 13.676	 1
2	 1	 37	 1	 519	 -7	 376	 1375571	 1375976	 1	 left	 L	 1.641	 1
2	 1	 38	 1	 518	 -6	 371	 1378259	 1378685	 1	 left	 L	 1.299	 1
2	 1	 39	 1	 371	 -141	 383	 1381030	 1381362	 1	 left	 R	 14.646	 1
2	 1	 40	 1	 510	 -2	 373	 1396618	 1396998	 0	 x	 R	 5.303	 1
2	 1	 41	 1	 221	 291	 333	 1403677	 1404000	 0	 x	 L	 14.167	 1
2	 1	 42	 1	 523	 11	 383	 1419689	 1420087	 1	 left	 R	 9.865	 0
2	 1	 43	 1	 463	 49	 278	 1431409	 1431790	 0	 x	 L	 15.048	 1
2	 1	 44	 1	 501	 -11	 363	 1448115	 1448447	 1	 right	 R	 1.771	 1
2	 1	 45	 1	 528	 16	 388	 1451278	 1451727	 0	 x	 R	 13.525	 1
2	 1	 46	 1	 517	 5	 375	 1467666	 1468064	 0	 x	 R	 18.330	 1
2	 1	 47	 1	 514	 2	 371	 1486960	 1487450	 1	 right	 R	 1.374	 1
2	 1	 48	 1	 513	 -1	 378	 1489393	 1489798	 1	 right	 L	 19.157	 0
2	 1	 49	 1	 516	 4	 381	 1511011	 1511483	 1	 right	 R	 1.611	 1
2	 1	 50	 1	 525	 13	 387	 1513820	 1514086	 0	 x	 R	 23.064	 0
2	 1	 51	 1	 517	 -5	 373	 1538274	 1538720	 0	 x	 L	 14.739	 1
2	 1	 52	 1	 520	 8	 387	 1556180	 1556777	 1	 left	 R	 12.035	 1
2	 1	 53	 1	 508	 4	 382	 1569450	 1569888	 0	 x	 L	 16.956	 1
2	 1	 54	 1	 521	 -9	 381	 1587889	 1588326	 0	 x	 L	 14.327	 1
2	 1	 55	 1	 521	 9	 385	 1603766	 1604110	 0	 x	 R	 15.167	 1
2	 1	 56	 1	 666	 -154	 323	 1620651	 1620908	 0	 x	 L	 11.559	 1
2	 1	 57	 1	 520	 8	 382	 1633074	 1633560	 0	 x	 R	 13.459	 1
2	 1	 58	 1	 645	 -133	 404	 1648316	 1648543	 1	 left	 L	 1.411	 1
2	 1	 59	 1	 513	 1	 369	 1650643	 1651093	 1	 left	 R	 4.710	 1
2	 1	 60	 1	 514	 -2	 383	 1657169	 1657599	 0	 x	 L	 14.435	 1
2	 1	 61	 1	 520	 -8	 380	 1673573	 1674037	 1	 right	 L	 9.114	 0
2	 1	 62	 1	 520	 -8	 378	 1684801	 1685237	 0	 x	 L	 17.814	 1
2	 1	 63	 1	 513	 1	 380	 1704063	 1704547	 1	 left	 R	 5.425	 1
2	 1	 64	 1	 506	 6	 383	 1711036	 1711425	 0	 x	 L	 21.860	 1
2	 1	 65	 1	 518	 -6	 386	 1734444	 1734908	 0	 x	 L	 10.527	 1
2	 1	 66	 1	 513	 -1	 376	 1746320	 1746775	 0	 x	 L	 11.396	 1
2	 1	 67	 1	 514	 2	 379	 1758757	 1759204	 0	 x	 R	 11.523	 1
2	 1	 68	 1	 511	 -1	 376	 1771419	 1771756	 0	 x	 R	 10.681	 1
2	 1	 69	 1	 508	 -4	 373	 1783575	 1784048	 1	 right	 R	 1.072	 1
2	 1	 70	 1	 507	 -5	 382	 1786096	 1786563	 1	 left	 R	 9.109	 1
2	 1	 71	 1	 443	 69	 332	 1796800	 1797042	 1	 left	 L	 1.119	 1
2	 1	 72	 1	 509	 3	 384	 1799544	 1800000	 0	 x	 L	 8.832	 1
2	 1	 73	 1	 510	 2	 385	 1809428	 1809856	 0	 x	 L	 10.222	 1
2	 1	 74	 1	 514	 2	 389	 1820999	 1821417	 0	 x	 R	 10.716	 1
2	 1	 75	 1	 512	 0	 389	 1835362	 1835844	 0	 x	 L	 12.369	 1
2	 1	 76	 1	 509	 -3	 380	 1849182	 1849614	 0	 x	 R	 10.664	 1
2	 1	 77	 1	 440	 -72	 329	 1861892	 1862192	 1	 right	 R	 1.114	 1
2	 1	 78	 1	 0	 0	 0	 1861892	 1862192	 1	 right	 R	 0.938	 1
2	 1	 79	 1	 510	 2	 382	 1866935	 1867479	 1	 right	 L	 12.908	 0
2	 1	 80	 1	 507	 5	 383	 1881762	 1882284	 0	 x	 L	 15.337	 1
2	 1	 81	 1	 511	 1	 386	 1900359	 1900869	 1	 right	 L	 10.447	 0
2	 1	 82	 1	 508	 -4	 375	 1912763	 1913259	 0	 x	 R	 11.698	 1
2	 1	 83	 1	 504	 -8	 375	 1926773	 1927271	 0	 x	 R	 7.952	 1
2	 1	 84	 1	 505	 7	 372	 1935839	 1936305	 1	 right	 L	 13.309	 0
2	 1	 85	 1	 506	 -6	 374	 1950230	 1950456	 0	 x	 R	 16.436	 1
2	 1	 86	 1	 419	 93	 326	 1968221	 1968455	 1	 left	 L	 1.011	 1
2	 1	 87	 1	 426	 -86	 351	 1970706	 1971017	 1	 right	 R	 1.077	 1
2	 1	 88	 1	 510	 2	 382	 1972720	 1973400	 1	 right	 L	 11.300	 1
2	 1	 89	 1	 510	 -2	 376	 1985564	 1985954	 1	 right	 R	 0.971	 1
2	 1	 90	 1	 519	 7	 382	 1987882	 1988357	 1	 left	 R	 11.440	 0
2	 1	 91	 1	 470	 -42	 362	 2001467	 2001748	 0	 x	 R	 11.466	 1
2	 1	 92	 1	 502	 10	 374	 2013926	 2014368	 1	 left	 L	 0.904	 1
2	 1	 93	 1	 507	 5	 387	 2016294	 2016770	 1	 left	 L	 0.947	 1
2	 1	 94	 1	 511	 1	 380	 2018707	 2019238	 1	 right	 L	 12.009	 0
2	 1	 95	 1	 514	 -2	 378	 2033889	 2034302	 0	 x	 L	 12.662	 1
2	 1	 96	 1	 505	 7	 378	 2048046	 2048580	 1	 right	 L	 5.383	 1
3	 1	 1	 1	 500	 12	 384	 960106	 960654	 1	 right	 L	 15.196	 1
3	 1	 2	 1	 500	 12	 391	 976864	 977354	 0	 x	 L	 9.514	 0
3	 1	 3	 1	 505	 -7	 421	 990462	 990690	 0	 x	 R	 4.305	 0
3	 1	 4	 1	 493	 19	 383	 996610	 997114	 1	 left	 L	 2.874	 1
3	 1	 5	 1	 501	 11	 387	 1000839	 1001367	 0	 x	 L	 27.732	 1
3	 1	 6	 1	 482	 -30	 373	 1030235	 1030774	 1	 right	 R	 2.251	 1
3	 1	 7	 1	 493	 19	 402	 1033837	 1034295	 0	 x	 L	 28.347	 1
3	 1	 8	 1	 491	 21	 388	 1063419	 1063916	 1	 right	 L	 16.408	 1
3	 1	 9	 1	 488	 24	 386	 1083214	 1083763	 1	 right	 L	 12.896	 1
3	 1	 10	 1	 494	 -18	 370	 1099221	 1099773	 1	 left	 R	 17.883	 1
3	 1	 11	 1	 486	 26	 344	 1118384	 1118999	 1	 left	 L	 1.696	 1
3	 1	 12	 1	 479	 -33	 375	 1121426	 1122077	 1	 left	 R	 10.051	 1
3	 1	 13	 1	 485	 -27	 381	 1137053	 1137527	 0	 x	 R	 2.849	 0
3	 1	 14	 1	 474	 38	 381	 1141875	 1142443	 1	 left	 L	 1.744	 1
3	 1	 15	 1	 483	 29	 378	 1146491	 1147013	 1	 left	 L	 1.176	 1
3	 1	 16	 1	 480	 -32	 376	 1149419	 1149940	 0	 x	 R	 12.126	 0
3	 1	 17	 1	 474	 -38	 383	 1163505	 1163997	 1	 left	 R	 10.892	 1
3	 1	 18	 1	 483	 -29	 387	 1176382	 1176934	 0	 x	 R	 18.063	 1
3	 1	 19	 1	 478	 -34	 363	 1196889	 1197392	 0	 x	 R	 11.391	 0
3	 1	 20	 1	 479	 33	 385	 1210464	 1211045	 1	 right	 L	 22.553	 1
3	 1	 21	 1	 479	 33	 385	 1235320	 1235798	 0	 x	 L	 15.247	 0
3	 1	 22	 1	 480	 32	 376	 1252057	 1252550	 0	 x	 L	 25.001	 1
3	 1	 23	 1	 476	 -36	 370	 1278540	 1279154	 0	 x	 R	 11.061	 1
3	 1	 24	 1	 475	 -37	 384	 1291255	 1291862	 0	 x	 R	 11.669	 0
3	 1	 25	 1	 595	 -83	 415	 1305322	 1305728	 0	 x	 L	 20.073	 1
3	 1	 26	 1	 471	 41	 380	 1326888	 1327448	 0	 x	 L	 15.432	 1
3	 1	 27	 1	 472	 -40	 381	 1343962	 1344503	 1	 left	 R	 8.777	 1
3	 1	 28	 1	 478	 -34	 379	 1354502	 1354841	 1	 left	 R	 3.050	 1
3	 1	 29	 1	 475	 -37	 375	 1359228	 1359740	 0	 x	 R	 19.100	 0
3	 1	 30	 1	 475	 37	 382	 1380030	 1380648	 0	 x	 L	 9.376	 1
3	 1	 31	 1	 474	 38	 382	 1391351	 1391855	 1	 left	 L	 2.093	 1
3	 1	 32	 1	 471	 41	 375	 1394737	 1395343	 0	 x	 L	 26.169	 1
3	 1	 33	 1	 480	 32	 378	 1422233	 1422981	 1	 left	 L	 1.415	 1
3	 1	 34	 1	 479	 33	 374	 1425525	 1426049	 0	 x	 L	 8.323	 1
3	 1	 35	 1	 482	 -30	 380	 1436656	 1437228	 1	 right	 R	 1.225	 1
3	 1	 36	 1	 483	 29	 377	 1439339	 1439893	 0	 x	 L	 8.582	 0
3	 1	 37	 1	 480	 32	 381	 1450399	 1450908	 1	 left	 L	 1.214	 1
3	 1	 38	 1	 477	 -35	 376	 1453604	 1454141	 0	 x	 R	 8.145	 1
3	 1	 39	 1	 474	 38	 370	 1463842	 1464321	 0	 x	 L	 11.084	 1
3	 1	 40	 1	 473	 39	 375	 1477033	 1477359	 0	 x	 L	 11.806	 1
3	 1	 41	 1	 479	 33	 377	 1490500	 1491053	 1	 right	 L	 10.192	 0
3	 1	 42	 1	 481	 -31	 390	 1503726	 1504291	 1	 right	 R	 1.137	 1
3	 1	 43	 1	 475	 -37	 390	 1506785	 1507349	 1	 right	 R	 1.054	 1
3	 1	 44	 1	 482	 30	 378	 1509365	 1509825	 1	 left	 L	 1.673	 1
3	 1	 45	 1	 590	 -78	 441	 1512657	 1512828	 0	 x	 L	 18.736	 1
3	 1	 46	 1	 481	 31	 386	 1532915	 1533435	 1	 right	 L	 3.184	 0
3	 1	 47	 1	 475	 -37	 376	 1537770	 1538135	 0	 x	 R	 11.963	 0
3	 1	 48	 1	 500	 -12	 385	 1551491	 1552089	 1	 left	 R	 6.824	 0
3	 1	 49	 1	 484	 28	 380	 1560466	 1561081	 0	 x	 L	 24.834	 1
3	 1	 50	 1	 483	 29	 381	 1586944	 1587576	 1	 right	 L	 8.793	 1
3	 1	 51	 1	 485	 -27	 388	 1597851	 1598338	 1	 left	 R	 17.243	 0
3	 1	 52	 1	 476	 -36	 402	 1616994	 1617546	 1	 right	 R	 1.060	 1
3	 1	 53	 1	 473	 -39	 381	 1620319	 1620844	 0	 x	 R	 19.680	 1
3	 1	 54	 1	 481	 31	 384	 1642868	 1643576	 1	 right	 L	 16.038	 0
3	 1	 55	 1	 470	 -42	 374	 1660655	 1661256	 0	 x	 R	 7.649	 1
3	 1	 56	 1	 483	 -29	 379	 1670789	 1671337	 0	 x	 R	 13.595	 1
3	 1	 57	 1	 496	 16	 380	 1686012	 1686594	 1	 left	 L	 1.073	 1
3	 1	 58	 1	 494	 -18	 376	 1688435	 1688760	 1	 right	 R	 1.261	 1
3	 1	 59	 1	 478	 34	 374	 1690900	 1691398	 0	 x	 L	 15.959	 0
3	 1	 60	 1	 487	 -25	 375	 1709013	 1709678	 0	 x	 R	 3.597	 0
3	 1	 61	 1	 490	 -22	 380	 1714396	 1714913	 1	 right	 R	 0.978	 1
3	 1	 62	 1	 494	 -18	 384	 1717547	 1718006	 0	 x	 R	 9.113	 1
3	 1	 63	 1	 496	 16	 382	 1729106	 1729400	 1	 left	 L	 0.925	 1
3	 1	 64	 1	 483	 -29	 390	 1733402	 1734004	 0	 x	 R	 10.105	 1
3	 1	 65	 1	 567	 55	 423	 1746281	 1746471	 1	 right	 R	 0.985	 1
3	 1	 66	 1	 483	 29	 378	 1748989	 1749455	 0	 x	 L	 10.730	 1
3	 1	 67	 1	 485	 -27	 373	 1763555	 1764186	 0	 x	 R	 13.152	 1
3	 1	 68	 1	 478	 -34	 377	 1779311	 1779965	 1	 left	 R	 25.482	 0
3	 1	 69	 1	 485	 -27	 386	 1806345	 1806872	 0	 x	 R	 19.272	 1
3	 1	 70	 1	 484	 28	 378	 1827326	 1827913	 1	 left	 L	 1.071	 1
3	 1	 71	 1	 489	 23	 392	 1830956	 1831465	 1	 right	 L	 15.318	 0
3	 1	 72	 1	 485	 27	 369	 1848704	 1849295	 0	 x	 L	 20.217	 1
3	 1	 73	 1	 482	 30	 382	 1871444	 1872095	 0	 x	 L	 27.287	 1
3	 1	 74	 1	 477	 35	 385	 1900584	 1901126	 0	 x	 L	 19.291	 1
3	 1	 75	 1	 476	 -36	 374	 1921261	 1921873	 0	 x	 R	 25.129	 1
3	 1	 76	 1	 484	 28	 369	 1947897	 1948520	 0	 x	 L	 10.289	 1
3	 1	 77	 1	 477	 -35	 368	 1960688	 1961131	 0	 x	 R	 20.186	 1
3	 1	 78	 1	 475	 -37	 374	 1982339	 1982917	 1	 left	 R	 16.278	 0
3	 1	 79	 1	 471	 -41	 361	 2000844	 2001413	 1	 right	 R	 1.392	 1
3	 1	 80	 1	 486	 26	 389	 2007288	 2007788	 1	 right	 L	 8.983	 0
3	 1	 81	 1	 479	 -33	 376	 2017695	 2018239	 1	 right	 R	 1.198	 1
3	 1	 82	 1	 487	 -25	 400	 2020541	 2021143	 1	 left	 R	 19.552	 0
3	 1	 83	 1	 470	 -42	 383	 2042420	 2042919	 1	 right	 R	 1.110	 1
3	 1	 84	 1	 481	 -31	 370	 2045201	 2045746	 1	 left	 R	 15.334	 0
3	 1	 85	 1	 467	 45	 365	 2062809	 2063183	 1	 left	 L	 1.092	 1
3	 1	 86	 1	 477	 35	 388	 2067429	 2068006	 0	 x	 L	 31.522	 1
3	 1	 87	 1	 480	 -32	 379	 2100700	 2101252	 0	 x	 R	 24.339	 1
3	 1	 88	 1	 480	 32	 382	 2127881	 2128474	 0	 x	 L	 12.778	 1
3	 1	 89	 1	 487	 -25	 385	 2142598	 2143127	 1	 left	 R	 16.459	 1
3	 1	 90	 1	 462	 50	 376	 2160934	 2161419	 1	 right	 L	 16.578	 0
3	 1	 91	 1	 484	 -28	 378	 2179876	 2180358	 0	 x	 R	 0.529	 0
3	 1	 92	 1	 482	 -30	 381	 2183554	 2184000	 0	 x	 R	 23.959	 1
3	 1	 93	 1	 474	 -38	 383	 2209657	 2210197	 0	 x	 R	 18.683	 1
3	 1	 94	 1	 492	 20	 384	 2230606	 2231055	 0	 x	 L	 26.139	 1
3	 1	 95	 1	 470	 -42	 381	 2258163	 2258686	 1	 right	 R	 1.385	 1
3	 1	 96	 1	 473	 39	 380	 2260824	 2261152	 1	 right	 L	 15.253	 1
4	 1	 1	 1	 513	 1	 369	 490747	 491197	 0	 x	 R	 1.177	 0
4	 1	 2	 1	 522	 10	 368	 493295	 493783	 0	 x	 R	 1.391	 0
4	 1	 3	 1	 517	 5	 352	 495945	 496532	 1	 right	 R	 1.722	 1
4	 1	 4	 1	 513	 1	 368	 498916	 499386	 1	 right	 R	 1.209	 1
4	 1	 5	 1	 514	 -2	 363	 501387	 501782	 0	 x	 L	 1.688	 1
4	 1	 6	 1	 515	 3	 355	 505450	 505812	 0	 x	 R	 1.161	 0
4	 1	 7	 1	 512	 0	 361	 508610	 509009	 1	 left	 R	 2.232	 1
4	 1	 8	 1	 507	 5	 364	 512191	 512728	 1	 right	 L	 2.209	 0
4	 1	 9	 1	 516	 -4	 374	 515501	 516122	 0	 x	 L	 1.134	 0
4	 1	 10	 1	 512	 0	 375	 517776	 518333	 0	 x	 L	 1.819	 0
4	 1	 11	 1	 522	 10	 373	 520807	 521293	 1	 right	 R	 4.670	 1
4	 1	 12	 1	 514	 2	 368	 527426	 527828	 1	 left	 R	 2.207	 1
4	 1	 13	 1	 520	 -8	 371	 531208	 531750	 0	 x	 L	 1.942	 0
4	 1	 14	 1	 521	 9	 375	 534707	 535126	 0	 x	 R	 3.034	 0
4	 1	 15	 1	 517	 5	 374	 540401	 540956	 0	 x	 R	 1.613	 0
4	 1	 16	 1	 515	 3	 362	 543334	 544029	 1	 left	 R	 2.288	 1
4	 1	 17	 1	 503	 -9	 365	 546872	 547158	 0	 x	 R	 1.910	 0
4	 1	 18	 1	 817	 305	 389	 551543	 551997	 1	 right	 R	 5.629	 1
4	 1	 19	 1	 516	 4	 364	 559189	 559856	 1	 right	 R	 3.137	 0
4	 1	 20	 1	 515	 3	 362	 563418	 563983	 0	 x	 R	 1.946	 0
4	 1	 21	 1	 514	 -2	 372	 568192	 568620	 0	 x	 L	 1.963	 0
4	 1	 22	 1	 516	 -4	 378	 571685	 572119	 0	 x	 L	 3.132	 0
4	 1	 23	 1	 512	 0	 379	 576676	 577312	 1	 left	 L	 3.012	 0
4	 1	 24	 1	 529	 17	 335	 581119	 581217	 0	 x	 R	 2.405	 0
4	 1	 25	 1	 516	 4	 362	 584731	 585301	 1	 right	 R	 3.682	 1
4	 1	 26	 1	 510	 2	 371	 590441	 590889	 1	 left	 L	 1.448	 1
4	 1	 27	 1	 518	 -6	 374	 593064	 593556	 1	 right	 L	 2.353	 1
4	 1	 28	 1	 514	 2	 379	 597325	 597748	 1	 right	 R	 1.546	 1
4	 1	 29	 1	 515	 -3	 356	 599966	 600463	 1	 right	 L	 1.041	 1
4	 1	 30	 1	 299	 213	 352	 603729	 604826	 1	 right	 L	 2.706	 0
4	 1	 31	 1	 525	 -13	 372	 607324	 607737	 0	 x	 L	 0.800	 0
4	 1	 32	 1	 512	 0	 368	 609888	 610358	 0	 x	 L	 0.905	 0
4	 1	 33	 1	 516	 4	 368	 612478	 612965	 1	 right	 R	 2.414	 0
4	 1	 34	 1	 513	 1	 370	 616250	 616680	 0	 x	 R	 2.122	 0
4	 1	 35	 1	 515	 3	 373	 619934	 620388	 0	 x	 R	 2.380	 0
4	 1	 36	 1	 522	 -10	 373	 623875	 624384	 0	 x	 L	 1.402	 0
4	 1	 37	 1	 507	 -5	 357	 626743	 627288	 0	 x	 R	 1.543	 1
4	 1	 38	 1	 510	 2	 354	 629633	 630101	 0	 x	 L	 1.084	 1
4	 1	 39	 1	 510	 2	 363	 631968	 632431	 0	 x	 L	 0.747	 0
4	 1	 40	 1	 509	 -3	 363	 633716	 634165	 1	 left	 R	 2.674	 1
4	 1	 41	 1	 514	 2	 343	 637732	 638308	 1	 left	 R	 2.019	 1
4	 1	 42	 1	 558	 46	 265	 641721	 641940	 0	 x	 R	 1.884	 1
4	 1	 43	 1	 526	 -14	 337	 644766	 644925	 1	 left	 L	 1.641	 1
4	 1	 44	 1	 511	 1	 365	 648835	 649313	 1	 left	 L	 2.151	 1
4	 1	 45	 1	 517	 5	 374	 652237	 652727	 1	 right	 R	 1.609	 1
4	 1	 46	 1	 521	 -9	 382	 655296	 655698	 1	 left	 L	 1.592	 1
4	 1	 47	 1	 515	 3	 370	 658137	 658572	 1	 left	 R	 0.942	 1
4	 1	 48	 1	 517	 -5	 359	 660129	 660559	 0	 x	 L	 1.550	 0
4	 1	 49	 1	 493	 19	 314	 663520	 663606	 0	 x	 L	 1.294	 1
4	 1	 50	 1	 515	 3	 359	 665674	 666105	 0	 x	 R	 1.447	 0
4	 1	 51	 1	 511	 -1	 364	 668679	 669068	 0	 x	 R	 1.584	 1
4	 1	 52	 1	 512	 0	 357	 671411	 671876	 0	 x	 R	 0.943	 0
4	 1	 53	 1	 505	 -7	 357	 673512	 673781	 1	 left	 R	 2.006	 0
4	 1	 54	 1	 491	 -21	 333	 676866	 676975	 0	 x	 R	 2.003	 0
4	 1	 55	 1	 522	 -10	 361	 679554	 680059	 0	 x	 L	 0.953	 0
4	 1	 56	 1	 515	 -3	 373	 681867	 682352	 0	 x	 L	 1.185	 1
4	 1	 57	 1	 508	 4	 362	 684245	 684659	 0	 x	 L	 0.953	 0
4	 1	 58	 1	 506	 6	 373	 686254	 686706	 0	 x	 L	 1.756	 0
4	 1	 59	 1	 512	 0	 359	 689868	 690081	 1	 left	 L	 0.853	 1
4	 1	 60	 1	 265	 247	 256	 692628	 692894	 1	 right	 L	 1.450	 1
4	 1	 61	 1	 507	 5	 359	 696382	 696633	 1	 right	 L	 1.371	 1
4	 1	 62	 1	 509	 3	 369	 699382	 699819	 1	 left	 L	 0.842	 1
4	 1	 63	 1	 354	 158	 322	 701558	 701980	 1	 left	 L	 0.796	 1
4	 1	 64	 1	 515	 3	 365	 703235	 703588	 1	 right	 R	 2.061	 0
4	 1	 65	 1	 512	 0	 363	 707458	 707924	 1	 left	 L	 2.079	 1
4	 1	 66	 1	 514	 -2	 364	 712085	 712475	 1	 right	 L	 1.325	 1
4	 1	 67	 1	 521	 9	 373	 715258	 715726	 0	 x	 R	 0.852	 0
4	 1	 68	 1	 509	 3	 361	 717467	 718017	 0	 x	 L	 0.814	 0
4	 1	 69	 1	 508	 4	 365	 719520	 719970	 0	 x	 L	 1.293	 0
4	 1	 70	 1	 506	 -6	 358	 722415	 722877	 0	 x	 R	 2.238	 0
4	 1	 71	 1	 515	 3	 362	 726415	 726929	 0	 x	 R	 0.975	 1
4	 1	 72	 1	 509	 -3	 360	 728455	 728946	 0	 x	 R	 1.067	 0
4	 1	 73	 1	 508	 -4	 356	 731046	 731466	 1	 right	 R	 1.070	 1
4	 1	 74	 1	 519	 7	 378	 733665	 734057	 1	 left	 R	 0.662	 1
4	 1	 75	 1	 521	 -9	 359	 735477	 735967	 1	 right	 L	 0.731	 1
4	 1	 76	 1	 517	 5	 365	 737354	 737877	 1	 left	 R	 0.715	 1
4	 1	 77	 1	 674	 -162	 313	 739614	 739933	 1	 right	 L	 1.280	 1
4	 1	 78	 1	 506	 6	 372	 741747	 742218	 1	 left	 L	 0.723	 1
4	 1	 79	 1	 508	 -4	 369	 744338	 744781	 0	 x	 R	 0.914	 0
4	 1	 80	 1	 517	 -5	 370	 746384	 746848	 1	 left	 L	 0.609	 1
4	 1	 81	 1	 508	 4	 365	 748142	 748606	 0	 x	 L	 0.611	 0
4	 1	 82	 1	 511	 -1	 360	 750412	 750915	 1	 left	 R	 0.661	 1
4	 1	 83	 1	 508	 -4	 371	 752305	 752783	 1	 left	 R	 0.709	 1
4	 1	 84	 1	 519	 -7	 374	 754766	 755223	 1	 left	 L	 1.202	 1
4	 1	 85	 1	 518	 -6	 372	 757575	 758055	 1	 right	 L	 0.684	 1
4	 1	 86	 1	 515	 -3	 376	 759326	 759867	 1	 right	 L	 0.616	 1
4	 1	 87	 1	 511	 1	 376	 761068	 761492	 0	 x	 L	 0.535	 0
4	 1	 88	 1	 519	 -7	 372	 763818	 764277	 1	 right	 L	 0.421	 0
4	 1	 89	 1	 506	 -6	 368	 766599	 766995	 0	 x	 R	 1.271	 1
4	 1	 90	 1	 517	 5	 362	 769020	 769562	 1	 right	 R	 1.018	 1
4	 1	 91	 1	 710	 -198	 362	 771476	 771738	 0	 x	 L	 1.309	 0
4	 1	 92	 1	 516	 -4	 385	 773740	 774160	 0	 x	 L	 0.743	 0
4	 1	 93	 1	 523	 11	 381	 776113	 776505	 0	 x	 R	 0.891	 1
4	 1	 94	 1	 518	 -6	 368	 778251	 778636	 0	 x	 L	 1.874	 0
4	 1	 95	 1	 380	 -132	 318	 781638	 781906	 1	 left	 R	 1.001	 1
4	 1	 96	 1	 513	 1	 353	 783492	 783774	 0	 x	 R	 1.235	 0
5	 1	 1	 1	 534	 -22	 395	 1072528	 1073113	 0	 x	 L	 1.266	 1
5	 1	 2	 1	 534	 -22	 387	 1075210	 1075841	 0	 x	 L	 0.921	 1
5	 1	 3	 1	 531	 19	 405	 1078221	 1078825	 1	 right	 R	 0.687	 1
5	 1	 4	 1	 537	 -25	 407	 1081062	 1081638	 1	 left	 L	 0.642	 1
5	 1	 5	 1	 533	 -21	 403	 1083162	 1084044	 1	 left	 L	 0.641	 1
5	 1	 6	 1	 530	 18	 400	 1084975	 1085830	 0	 x	 R	 0.848	 1
5	 1	 7	 1	 531	 -19	 405	 1087260	 1087832	 0	 x	 L	 1.047	 1
5	 1	 8	 1	 524	 12	 410	 1090385	 1090973	 1	 right	 R	 0.626	 1
5	 1	 9	 1	 527	 15	 396	 1093079	 1093763	 1	 left	 R	 1.805	 1
5	 1	 10	 1	 526	 -14	 417	 1097569	 1098273	 0	 x	 L	 2.112	 1
5	 1	 11	 1	 524	 12	 402	 1101918	 1102511	 0	 x	 R	 2.267	 1
5	 1	 12	 1	 522	 -10	 405	 1106811	 1107508	 0	 x	 L	 0.911	 1
5	 1	 13	 1	 522	 10	 425	 1110164	 1110836	 0	 x	 R	 1.089	 1
5	 1	 14	 1	 525	 -13	 408	 1112733	 1113476	 0	 x	 L	 1.079	 1
5	 1	 15	 1	 526	 -14	 410	 1116085	 1116603	 1	 left	 L	 0.552	 1
5	 1	 16	 1	 521	 -9	 396	 1117887	 1118411	 0	 x	 L	 0.817	 1
5	 1	 17	 1	 519	 -7	 409	 1120466	 1120994	 0	 x	 L	 0.688	 1
5	 1	 18	 1	 521	 9	 403	 1123210	 1124079	 1	 right	 R	 0.649	 1
5	 1	 19	 1	 519	 7	 399	 1125022	 1125533	 1	 right	 R	 0.606	 1
5	 1	 20	 1	 522	 10	 411	 1126687	 1127432	 1	 left	 R	 0.802	 0
5	 1	 21	 1	 523	 -11	 406	 1129991	 1130539	 0	 x	 L	 1.656	 1
5	 1	 22	 1	 528	 -16	 429	 1132871	 1133461	 1	 right	 L	 0.746	 1
5	 1	 23	 1	 523	 11	 395	 1134955	 1135330	 0	 x	 R	 0.811	 1
5	 1	 24	 1	 522	 10	 401	 1139064	 1139603	 1	 right	 R	 0.681	 1
5	 1	 25	 1	 516	 4	 413	 1141024	 1141550	 1	 left	 R	 1.124	 0
5	 1	 26	 1	 512	 0	 413	 1144524	 1145010	 1	 left	 R	 1.113	 1
5	 1	 27	 1	 525	 13	 404	 1146989	 1147529	 1	 left	 R	 1.103	 1
5	 1	 28	 1	 514	 2	 410	 1149411	 1150008	 1	 right	 R	 0.648	 1
5	 1	 29	 1	 523	 -11	 385	 1151228	 1151828	 1	 left	 L	 0.641	 1
5	 1	 30	 1	 516	 4	 409	 1153068	 1153663	 0	 x	 R	 3.052	 1
5	 1	 31	 1	 522	 10	 404	 1158391	 1158970	 0	 x	 R	 2.617	 1
5	 1	 32	 1	 521	 9	 412	 1162435	 1162933	 1	 right	 R	 0.674	 1
5	 1	 33	 1	 520	 -8	 408	 1164362	 1164895	 1	 right	 L	 0.766	 1
5	 1	 34	 1	 522	 10	 407	 1166283	 1166872	 0	 x	 R	 2.380	 1
5	 1	 35	 1	 507	 5	 415	 1170098	 1170743	 1	 right	 L	 1.014	 1
5	 1	 36	 1	 512	 0	 404	 1173179	 1173729	 0	 x	 R	 2.678	 1
5	 1	 37	 1	 516	 4	 413	 1177947	 1178445	 0	 x	 R	 1.757	 1
5	 1	 38	 1	 514	 -2	 412	 1181022	 1181640	 1	 right	 L	 0.833	 1
5	 1	 39	 1	 505	 7	 409	 1183863	 1184310	 1	 right	 L	 1.110	 1
5	 1	 40	 1	 516	 -4	 412	 1186204	 1186703	 1	 left	 L	 0.601	 1
5	 1	 41	 1	 517	 -5	 407	 1188843	 1189394	 0	 x	 L	 2.034	 0
5	 1	 42	 1	 516	 4	 416	 1192843	 1193355	 0	 x	 R	 2.169	 1
5	 1	 43	 1	 510	 2	 414	 1198656	 1199218	 0	 x	 L	 2.273	 1
5	 1	 44	 1	 505	 7	 405	 1204256	 1204834	 0	 x	 L	 1.104	 1
5	 1	 45	 1	 520	 8	 417	 1206929	 1207498	 0	 x	 R	 1.607	 1
5	 1	 46	 1	 530	 18	 410	 1209945	 1210680	 0	 x	 R	 1.322	 1
5	 1	 47	 1	 513	 1	 422	 1215370	 1215895	 0	 x	 R	 1.028	 1
5	 1	 48	 1	 516	 4	 415	 1218135	 1218655	 0	 x	 R	 1.344	 1
5	 1	 49	 1	 522	 -10	 410	 1221575	 1222311	 1	 right	 L	 0.809	 0
5	 1	 50	 1	 509	 3	 403	 1224797	 1225399	 0	 x	 L	 1.251	 0
5	 1	 51	 1	 523	 11	 424	 1233649	 1233948	 0	 x	 R	 1.482	 0
5	 1	 52	 1	 502	 -10	 390	 1238240	 1239028	 0	 x	 R	 4.097	 1
5	 1	 53	 1	 504	 -8	 411	 1244636	 1245147	 1	 left	 R	 1.360	 1
5	 1	 54	 1	 520	 8	 410	 1250966	 1251426	 0	 x	 R	 4.230	 1
5	 1	 55	 1	 516	 -4	 416	 1258558	 1259098	 0	 x	 L	 1.504	 1
5	 1	 56	 1	 504	 8	 402	 1262433	 1262909	 1	 right	 L	 1.206	 1
5	 1	 57	 1	 506	 6	 266	 1265252	 1265462	 1	 right	 L	 3.631	 1
5	 1	 58	 1	 509	 -3	 412	 1270635	 1271121	 0	 x	 R	 1.984	 1
5	 1	 59	 1	 508	 -4	 406	 1276214	 1276739	 1	 right	 R	 0.752	 1
5	 1	 60	 1	 512	 0	 412	 1278201	 1278799	 1	 left	 R	 1.696	 1
5	 1	 61	 1	 509	 3	 417	 1286828	 1287395	 0	 x	 L	 2.434	 1
5	 1	 62	 1	 504	 8	 415	 1290670	 1291227	 1	 left	 L	 0.865	 1
5	 1	 63	 1	 504	 8	 390	 1292781	 1293284	 1	 left	 L	 0.674	 1
5	 1	 64	 1	 507	 -5	 402	 1295645	 1296308	 1	 left	 R	 0.862	 1
5	 1	 65	 1	 506	 6	 404	 1300265	 1300812	 1	 right	 L	 1.392	 0
5	 1	 66	 1	 490	 22	 409	 1306177	 1306764	 0	 x	 L	 2.921	 1
5	 1	 67	 1	 510	 2	 416	 1314672	 1315200	 1	 left	 L	 0.768	 1
5	 1	 68	 1	 509	 -3	 419	 1316812	 1317362	 0	 x	 R	 0.944	 1
5	 1	 69	 1	 505	 7	 405	 1322004	 1322570	 1	 left	 L	 0.666	 1
5	 1	 70	 1	 511	 1	 411	 1323995	 1324531	 1	 right	 L	 0.775	 0
5	 1	 71	 1	 520	 -8	 411	 1328007	 1328511	 1	 left	 L	 0.670	 1
5	 1	 72	 1	 502	 -10	 406	 1330527	 1331009	 1	 left	 R	 1.389	 1
5	 1	 73	 1	 520	 8	 412	 1333580	 1333999	 0	 x	 R	 2.329	 1
5	 1	 74	 1	 510	 -2	 416	 1337738	 1338235	 1	 left	 R	 1.488	 1
5	 1	 75	 1	 294	 218	 303	 1340590	 1340979	 0	 x	 L	 2.456	 1
5	 1	 76	 1	 515	 3	 414	 1344090	 1345195	 1	 right	 R	 0.902	 1
5	 1	 77	 1	 509	 3	 421	 1354235	 1354776	 1	 right	 L	 0.846	 1
5	 1	 78	 1	 508	 4	 417	 1356385	 1356926	 1	 right	 L	 1.429	 1
5	 1	 79	 1	 507	 5	 414	 1359319	 1359728	 0	 x	 L	 1.821	 1
5	 1	 80	 1	 513	 1	 412	 1362410	 1362949	 0	 x	 R	 1.514	 1
5	 1	 81	 1	 508	 -4	 422	 1365093	 1365661	 1	 left	 R	 1.303	 1
5	 1	 82	 1	 506	 -6	 417	 1367890	 1368281	 0	 x	 R	 2.328	 1
5	 1	 83	 1	 513	 1	 405	 1371233	 1371763	 1	 right	 R	 0.705	 1
5	 1	 84	 1	 511	 1	 410	 1373214	 1373740	 1	 left	 L	 0.681	 1
5	 1	 85	 1	 507	 5	 418	 1375173	 1375694	 0	 x	 L	 2.570	 1
5	 1	 86	 1	 497	 15	 412	 1381214	 1381724	 0	 x	 L	 0.937	 1
5	 1	 87	 1	 507	 5	 411	 1383495	 1383815	 0	 x	 L	 1.062	 1
5	 1	 88	 1	 512	 0	 405	 1386347	 1386937	 1	 right	 R	 0.622	 1
5	 1	 89	 1	 510	 2	 422	 1388159	 1388742	 0	 x	 L	 0.842	 1
5	 1	 90	 1	 510	 -2	 418	 1390498	 1390942	 1	 left	 R	 1.154	 1
5	 1	 91	 1	 515	 3	 415	 1393183	 1393710	 1	 right	 R	 0.688	 1
5	 1	 92	 1	 521	 9	 411	 1395012	 1395651	 0	 x	 R	 1.497	 1
5	 1	 93	 1	 517	 -5	 415	 1397831	 1398412	 1	 left	 L	 0.616	 1
5	 1	 94	 1	 505	 -7	 406	 1400541	 1401132	 0	 x	 R	 1.635	 1
5	 1	 95	 1	 511	 1	 414	 1404308	 1405313	 0	 x	 L	 0.872	 1
5	 1	 96	 1	 508	 4	 425	 1406425	 1407140	 0	 x	 L	 0.663	 1
6	 1	 1	 1	 528	 16	 393	 1309182	 1309605	 0	 x	 R	 2.370	 1
6	 1	 2	 1	 530	 -18	 390	 1313004	 1313432	 1	 left	 L	 0.640	 1
6	 1	 3	 1	 519	 -7	 391	 1314723	 1315312	 1	 right	 L	 1.272	 1
6	 1	 4	 1	 524	 -12	 382	 1319644	 1320046	 0	 x	 L	 5.405	 1
6	 1	 5	 1	 522	 -10	 393	 1326599	 1327042	 1	 right	 L	 3.697	 0
6	 1	 6	 1	 511	 1	 400	 1331808	 1332292	 1	 right	 L	 5.200	 0
6	 1	 7	 1	 525	 13	 385	 1338176	 1338625	 1	 left	 R	 8.180	 0
6	 1	 8	 1	 508	 4	 391	 1348816	 1349235	 1	 left	 L	 0.792	 1
6	 1	 9	 1	 526	 14	 393	 1350911	 1351282	 0	 x	 R	 7.109	 1
6	 1	 10	 1	 520	 -8	 388	 1359974	 1360426	 1	 right	 L	 3.075	 1
6	 1	 11	 1	 524	 12	 384	 1364932	 1365319	 0	 x	 R	 8.907	 1
6	 1	 12	 1	 521	 9	 397	 1375616	 1376123	 1	 right	 R	 0.817	 1
6	 1	 13	 1	 520	 8	 394	 1378648	 1379063	 0	 x	 R	 9.694	 1
6	 1	 14	 1	 509	 -3	 391	 1389516	 1389944	 0	 x	 R	 9.404	 1
6	 1	 15	 1	 515	 3	 369	 1400612	 1401034	 1	 left	 R	 4.151	 1
6	 1	 16	 1	 513	 1	 394	 1407990	 1408457	 0	 x	 R	 7.493	 1
6	 1	 17	 1	 509	 3	 397	 1417776	 1418182	 0	 x	 L	 10.301	 1
6	 1	 18	 1	 502	 10	 391	 1429826	 1430275	 0	 x	 L	 7.040	 1
6	 1	 19	 1	 517	 -5	 390	 1438462	 1438845	 1	 right	 L	 8.512	 0
6	 1	 20	 1	 477	 35	 291	 1448630	 1448860	 1	 right	 L	 9.715	 0
6	 1	 21	 1	 525	 -13	 384	 1459411	 1459819	 0	 x	 L	 13.622	 1
6	 1	 22	 1	 518	 -6	 391	 1475185	 1475602	 1	 left	 L	 0.771	 1
6	 1	 23	 1	 521	 9	 401	 1477704	 1478145	 0	 x	 R	 9.666	 1
6	 1	 24	 1	 520	 -8	 396	 1490222	 1490734	 0	 x	 L	 12.233	 1
6	 1	 25	 1	 505	 -7	 395	 1504014	 1504434	 0	 x	 R	 11.616	 1
6	 1	 26	 1	 516	 4	 387	 1517033	 1517488	 1	 right	 R	 0.877	 1
6	 1	 27	 1	 522	 -10	 390	 1519265	 1519777	 1	 left	 L	 0.799	 1
6	 1	 28	 1	 524	 12	 388	 1521175	 1521613	 1	 right	 R	 0.778	 1
6	 1	 29	 1	 534	 22	 387	 1522993	 1523476	 1	 left	 R	 9.810	 0
6	 1	 30	 1	 515	 -3	 386	 1535576	 1536040	 1	 right	 L	 6.395	 1
6	 1	 31	 1	 515	 3	 385	 1543599	 1544021	 0	 x	 R	 10.327	 0
6	 1	 32	 1	 495	 17	 303	 1555583	 1555877	 1	 left	 L	 0.759	 1
6	 1	 33	 1	 514	 -2	 381	 1558098	 1558587	 0	 x	 L	 11.225	 1
6	 1	 34	 1	 523	 11	 390	 1572875	 1573291	 0	 x	 R	 11.802	 1
6	 1	 35	 1	 509	 3	 395	 1586166	 1586576	 0	 x	 L	 9.495	 1
6	 1	 36	 1	 475	 37	 302	 1597379	 1597618	 1	 right	 L	 6.485	 1
6	 1	 37	 1	 493	 -19	 241	 1605204	 1605498	 0	 x	 R	 10.922	 1
6	 1	 38	 1	 516	 -4	 385	 1617260	 1617703	 1	 left	 L	 1.009	 1
6	 1	 39	 1	 522	 -10	 398	 1620330	 1620734	 1	 right	 L	 3.622	 1
6	 1	 40	 1	 517	 5	 389	 1625800	 1626164	 1	 right	 R	 0.745	 1
6	 1	 41	 1	 516	 4	 386	 1627993	 1628405	 0	 x	 R	 6.193	 1
6	 1	 42	 1	 508	 -4	 378	 1635424	 1635625	 1	 right	 R	 0.732	 1
6	 1	 43	 1	 461	 -51	 260	 1637180	 1637505	 1	 right	 R	 0.708	 1
6	 1	 44	 1	 515	 -3	 390	 1639466	 1639826	 0	 x	 L	 5.674	 1
6	 1	 45	 1	 470	 42	 298	 1646409	 1646621	 1	 left	 L	 0.793	 1
6	 1	 46	 1	 516	 4	 341	 1648738	 1648936	 1	 left	 R	 6.000	 1
6	 1	 47	 1	 442	 -70	 303	 1655953	 1656304	 1	 left	 R	 9.171	 0
6	 1	 48	 1	 446	 66	 253	 1666626	 1666928	 0	 x	 L	 13.837	 1
6	 1	 49	 1	 503	 9	 324	 1681766	 1682065	 0	 x	 L	 13.355	 0
6	 1	 50	 1	 516	 -4	 382	 1697218	 1697660	 0	 x	 L	 7.665	 1
6	 1	 51	 1	 510	 -2	 382	 1707162	 1707528	 0	 x	 R	 14.717	 1
6	 1	 52	 1	 494	 -18	 269	 1723377	 1723636	 1	 right	 R	 0.782	 1
6	 1	 53	 1	 492	 20	 318	 1725579	 1725764	 0	 x	 L	 11.252	 1
6	 1	 54	 1	 505	 7	 270	 1737909	 1738240	 0	 x	 L	 10.773	 1
6	 1	 55	 1	 517	 5	 385	 1750388	 1750977	 0	 x	 R	 11.811	 1
6	 1	 56	 1	 448	 -64	 301	 1763747	 1763990	 0	 x	 R	 9.809	 1
6	 1	 57	 1	 508	 4	 391	 1774727	 1775113	 0	 x	 L	 9.255	 1
6	 1	 58	 1	 496	 16	 324	 1785285	 1785557	 1	 right	 L	 7.484	 0
6	 1	 59	 1	 518	 -6	 392	 1794207	 1794601	 0	 x	 L	 9.964	 1
6	 1	 60	 1	 505	 -7	 387	 1805919	 1806328	 1	 left	 R	 2.784	 1
6	 1	 61	 1	 502	 10	 387	 1810355	 1810744	 0	 x	 L	 9.821	 1
6	 1	 62	 1	 508	 -4	 341	 1822428	 1822797	 0	 x	 R	 10.024	 1
6	 1	 63	 1	 508	 -4	 395	 1833901	 1834304	 1	 left	 R	 4.873	 1
6	 1	 64	 1	 505	 7	 388	 1840224	 1840611	 0	 x	 L	 6.813	 1
6	 1	 65	 1	 490	 22	 266	 1848450	 1848890	 1	 left	 L	 0.904	 1
6	 1	 66	 1	 511	 -1	 362	 1850637	 1851086	 1	 right	 R	 0.769	 1
6	 1	 67	 1	 519	 7	 287	 1852775	 1853111	 1	 left	 R	 1.255	 1
6	 1	 68	 1	 523	 -11	 389	 1855042	 1855497	 0	 x	 L	 5.602	 1
6	 1	 69	 1	 505	 7	 320	 1862812	 1863124	 0	 x	 L	 9.286	 1
6	 1	 70	 1	 533	 -21	 282	 1874128	 1874358	 1	 left	 L	 0.784	 1
6	 1	 71	 1	 515	 -3	 256	 1875937	 1876293	 0	 x	 L	 8.335	 1
6	 1	 72	 1	 569	 57	 248	 1885538	 1885769	 1	 left	 R	 8.893	 0
6	 1	 73	 1	 493	 19	 343	 1896126	 1896534	 1	 left	 L	 0.790	 1
6	 1	 74	 1	 513	 1	 388	 1898816	 1899232	 1	 right	 R	 0.742	 1
6	 1	 75	 1	 523	 -11	 393	 1900791	 1901322	 1	 right	 L	 2.349	 0
6	 1	 76	 1	 519	 7	 376	 1904851	 1905304	 0	 x	 R	 13.179	 1
6	 1	 77	 1	 512	 0	 393	 1920352	 1920758	 0	 x	 L	 5.686	 1
6	 1	 78	 1	 504	 -8	 397	 1927607	 1928012	 1	 right	 R	 0.831	 1
6	 1	 79	 1	 514	 2	 391	 1929850	 1930225	 0	 x	 R	 5.311	 1
6	 1	 80	 1	 502	 -10	 330	 1936589	 1936865	 0	 x	 R	 8.564	 1
6	 1	 81	 1	 513	 -1	 377	 1946177	 1946574	 1	 left	 L	 0.689	 1
6	 1	 82	 1	 510	 -2	 384	 1948115	 1948484	 1	 left	 R	 6.763	 1
6	 1	 83	 1	 434	 78	 258	 1956215	 1956466	 0	 x	 L	 9.683	 1
6	 1	 84	 1	 503	 -9	 383	 1966925	 1967334	 1	 right	 R	 0.679	 1
6	 1	 85	 1	 508	 -4	 382	 1968781	 1969199	 0	 x	 R	 7.275	 1
6	 1	 86	 1	 502	 -10	 282	 1977299	 1977613	 0	 x	 R	 6.575	 1
6	 1	 87	 1	 514	 -2	 329	 1985543	 1985773	 1	 left	 L	 0.604	 1
6	 1	 88	 1	 500	 -12	 398	 1987139	 1987553	 1	 right	 R	 0.773	 1
6	 1	 89	 1	 505	 -7	 394	 1989142	 1989613	 1	 left	 R	 10.573	 0
6	 1	 90	 1	 514	 -2	 392	 2001078	 2001492	 1	 right	 L	 9.691	 0
6	 1	 91	 1	 507	 5	 390	 2012088	 2012518	 0	 x	 L	 10.345	 1
6	 1	 92	 1	 519	 7	 332	 2023825	 2024238	 0	 x	 R	 12.987	 1
6	 1	 93	 1	 509	 -3	 372	 2038767	 2039054	 1	 left	 R	 11.512	 0
6	 1	 94	 1	 516	 -4	 398	 2051668	 2052085	 0	 x	 L	 9.969	 1
6	 1	 95	 1	 509	 -3	 384	 2062901	 2063305	 0	 x	 R	 5.511	 1
6	 1	 96	 1	 502	 -10	 379	 2069862	 2070268	 0	 x	 R	 12.914	 1
7	 1	 1	 1	 510	 2	 373	 1425699	 1426156	 0	 x	 L	 1.452	 1
7	 1	 2	 1	 512	 0	 364	 1428300	 1428728	 0	 x	 R	 2.053	 1
7	 1	 3	 1	 518	 -6	 375	 1431392	 1431854	 1	 right	 L	 2.133	 0
7	 1	 4	 1	 508	 4	 376	 1435076	 1435540	 0	 x	 L	 2.080	 1
7	 1	 5	 1	 508	 -4	 371	 1438178	 1438610	 0	 x	 R	 1.909	 1
7	 1	 6	 1	 509	 3	 382	 1442267	 1442728	 0	 x	 L	 3.172	 1
7	 1	 7	 1	 513	 -1	 378	 1446299	 1446775	 0	 x	 L	 1.711	 1
7	 1	 8	 1	 511	 -1	 371	 1449042	 1449489	 0	 x	 R	 2.279	 1
7	 1	 9	 1	 511	 1	 376	 1452183	 1452631	 1	 left	 L	 0.909	 1
7	 1	 10	 1	 517	 -5	 369	 1454132	 1454468	 1	 left	 L	 1.011	 1
7	 1	 11	 1	 525	 13	 379	 1456483	 1457019	 0	 x	 R	 2.131	 1
7	 1	 12	 1	 508	 4	 375	 1460265	 1460624	 0	 x	 L	 1.110	 1
7	 1	 13	 1	 509	 3	 380	 1462617	 1463069	 0	 x	 L	 0.720	 1
7	 1	 14	 1	 507	 5	 378	 1464576	 1465002	 1	 left	 L	 0.771	 1
7	 1	 15	 1	 503	 -9	 378	 1466399	 1466745	 0	 x	 R	 1.569	 1
7	 1	 16	 1	 506	 -6	 357	 1469316	 1469711	 0	 x	 R	 1.133	 1
7	 1	 17	 1	 512	 0	 376	 1471798	 1472237	 0	 x	 L	 0.991	 1
7	 1	 18	 1	 512	 0	 373	 1474237	 1474665	 0	 x	 R	 0.924	 1
7	 1	 19	 1	 516	 -4	 384	 1476212	 1476651	 0	 x	 L	 0.760	 1
7	 1	 20	 1	 506	 6	 384	 1478019	 1478451	 1	 right	 L	 0.763	 0
7	 1	 21	 1	 506	 6	 387	 1480642	 1481035	 1	 left	 L	 0.831	 1
7	 1	 22	 1	 498	 -14	 368	 1482514	 1482874	 1	 left	 R	 2.210	 0
7	 1	 23	 1	 510	 2	 382	 1485884	 1486322	 0	 x	 L	 1.141	 1
7	 1	 24	 1	 502	 10	 379	 1489177	 1489569	 1	 left	 L	 0.852	 1
7	 1	 25	 1	 505	 -7	 383	 1491261	 1491726	 1	 right	 R	 0.866	 1
7	 1	 26	 1	 518	 6	 381	 1493667	 1494184	 1	 left	 R	 1.601	 0
7	 1	 27	 1	 514	 2	 379	 1496389	 1496782	 0	 x	 R	 2.421	 1
7	 1	 28	 1	 509	 3	 378	 1500160	 1500615	 0	 x	 L	 1.181	 1
7	 1	 29	 1	 505	 7	 373	 1502892	 1503335	 1	 left	 L	 1.069	 1
7	 1	 30	 1	 509	 -3	 378	 1505211	 1505668	 1	 right	 R	 0.802	 1
7	 1	 31	 1	 505	 -7	 389	 1507105	 1507538	 0	 x	 R	 1.309	 1
7	 1	 32	 1	 512	 0	 382	 1509565	 1510001	 0	 x	 R	 1.200	 1
7	 1	 33	 1	 512	 0	 386	 1511791	 1512233	 1	 right	 R	 0.754	 1
7	 1	 34	 1	 517	 5	 373	 1513995	 1514452	 0	 x	 R	 0.881	 1
7	 1	 35	 1	 516	 4	 377	 1515981	 1516433	 0	 x	 R	 2.245	 1
7	 1	 36	 1	 509	 -3	 384	 1519476	 1519920	 1	 left	 R	 0.783	 0
7	 1	 37	 1	 518	 6	 376	 1521392	 1521829	 0	 x	 R	 2.347	 1
7	 1	 38	 1	 504	 8	 387	 1524766	 1525248	 1	 right	 L	 1.034	 0
7	 1	 39	 1	 499	 13	 378	 1527858	 1528324	 0	 x	 L	 2.880	 1
7	 1	 40	 1	 494	 18	 379	 1531891	 1532346	 0	 x	 L	 1.559	 1
7	 1	 41	 1	 500	 12	 378	 1535243	 1535706	 0	 x	 L	 1.791	 1
7	 1	 42	 1	 506	 -6	 382	 1538183	 1538635	 1	 left	 R	 2.659	 0
7	 1	 43	 1	 497	 15	 378	 1541927	 1542464	 1	 right	 L	 2.240	 0
7	 1	 44	 1	 509	 3	 384	 1545340	 1545849	 1	 right	 L	 5.568	 0
7	 1	 45	 1	 514	 2	 361	 1552121	 1552586	 1	 left	 R	 5.272	 0
7	 1	 46	 1	 513	 1	 377	 1558527	 1558919	 1	 right	 R	 0.985	 1
7	 1	 47	 1	 503	 -9	 386	 1560759	 1561172	 1	 right	 R	 0.835	 1
7	 1	 48	 1	 514	 2	 387	 1562941	 1563409	 1	 left	 R	 1.664	 0
7	 1	 49	 1	 521	 -9	 389	 1566365	 1566762	 0	 x	 L	 3.872	 1
7	 1	 50	 1	 511	 1	 383	 1571389	 1571861	 0	 x	 L	 3.170	 1
7	 1	 51	 1	 516	 4	 376	 1575606	 1576037	 0	 x	 R	 2.904	 1
7	 1	 52	 1	 516	 -4	 385	 1579960	 1580419	 1	 left	 L	 0.930	 1
7	 1	 53	 1	 506	 -6	 373	 1582094	 1582366	 1	 right	 R	 0.671	 1
7	 1	 54	 1	 507	 5	 383	 1583961	 1584347	 1	 left	 L	 0.671	 1
7	 1	 55	 1	 515	 -3	 379	 1586280	 1586624	 1	 right	 L	 4.395	 0
7	 1	 56	 1	 519	 7	 377	 1591837	 1592357	 1	 left	 R	 5.453	 0
7	 1	 57	 1	 514	 2	 381	 1598357	 1598798	 0	 x	 R	 3.441	 0
7	 1	 58	 1	 512	 0	 365	 1602857	 1603274	 1	 left	 L	 0.862	 1
7	 1	 59	 1	 510	 2	 379	 1605373	 1605777	 1	 right	 L	 1.218	 0
7	 1	 60	 1	 502	 -10	 375	 1607648	 1608141	 0	 x	 R	 2.653	 0
7	 1	 61	 1	 513	 1	 376	 1611882	 1612377	 0	 x	 R	 0.972	 1
7	 1	 62	 1	 511	 1	 379	 1613902	 1614376	 0	 x	 L	 1.222	 1
7	 1	 63	 1	 518	 6	 378	 1616072	 1616489	 1	 right	 R	 0.816	 1
7	 1	 64	 1	 520	 -8	 378	 1617918	 1618367	 0	 x	 L	 0.758	 1
7	 1	 65	 1	 513	 -1	 378	 1620122	 1620478	 1	 left	 L	 0.765	 1
7	 1	 66	 1	 514	 2	 376	 1622038	 1622540	 0	 x	 R	 2.250	 1
7	 1	 67	 1	 519	 7	 376	 1625538	 1625923	 0	 x	 R	 1.461	 1
7	 1	 68	 1	 505	 -7	 366	 1628047	 1628504	 0	 x	 R	 2.713	 1
7	 1	 69	 1	 515	 3	 368	 1632112	 1632452	 0	 x	 R	 2.809	 1
7	 1	 70	 1	 508	 4	 382	 1635872	 1636330	 0	 x	 L	 2.870	 1
7	 1	 71	 1	 519	 7	 369	 1640391	 1640826	 1	 left	 R	 1.403	 0
7	 1	 72	 1	 505	 7	 375	 1643351	 1643764	 1	 right	 L	 1.644	 0
7	 1	 73	 1	 507	 -5	 378	 1646154	 1646595	 1	 right	 R	 0.862	 1
7	 1	 74	 1	 507	 -5	 384	 1648169	 1648593	 1	 right	 R	 0.818	 0
7	 1	 75	 1	 510	 2	 379	 1651336	 1651780	 1	 right	 L	 3.783	 0
7	 1	 76	 1	 510	 -2	 375	 1656681	 1657160	 0	 x	 R	 1.390	 1
7	 1	 77	 1	 512	 0	 374	 1659419	 1659876	 0	 x	 L	 0.993	 1
7	 1	 78	 1	 507	 -5	 380	 1661568	 1662023	 1	 left	 R	 0.984	 0
7	 1	 79	 1	 512	 0	 384	 1663723	 1664167	 1	 left	 R	 2.321	 0
7	 1	 80	 1	 505	 7	 378	 1667642	 1668099	 1	 right	 L	 2.777	 0
7	 1	 81	 1	 509	 -3	 378	 1671893	 1672349	 1	 right	 R	 0.933	 1
7	 1	 82	 1	 521	 -9	 378	 1673945	 1674430	 1	 left	 L	 1.002	 1
7	 1	 83	 1	 513	 1	 384	 1676296	 1676661	 1	 right	 R	 0.711	 1
7	 1	 84	 1	 522	 -10	 382	 1678119	 1678578	 0	 x	 L	 7.627	 0
7	 1	 85	 1	 516	 -4	 376	 1687110	 1687621	 1	 right	 L	 2.938	 0
7	 1	 86	 1	 512	 0	 382	 1691422	 1691903	 0	 x	 L	 0.937	 1
7	 1	 87	 1	 518	 6	 376	 1693452	 1693863	 0	 x	 R	 5.174	 1
7	 1	 88	 1	 502	 -10	 372	 1699667	 1700149	 1	 left	 R	 1.489	 0
7	 1	 89	 1	 514	 -2	 382	 1702318	 1702825	 1	 right	 L	 4.649	 0
7	 1	 90	 1	 497	 15	 382	 1708114	 1708572	 1	 left	 L	 0.885	 1
7	 1	 91	 1	 506	 6	 379	 1710236	 1710681	 0	 x	 L	 1.185	 1
7	 1	 92	 1	 515	 3	 377	 1712474	 1712891	 1	 left	 R	 0.948	 0
7	 1	 93	 1	 517	 5	 378	 1715179	 1715648	 0	 x	 R	 1.549	 1
7	 1	 94	 1	 528	 16	 385	 1717981	 1718423	 1	 right	 R	 1.803	 1
7	 1	 95	 1	 511	 1	 382	 1721035	 1721508	 0	 x	 L	 1.129	 1
7	 1	 96	 1	 504	 8	 379	 1723217	 1723726	 0	 x	 L	 1.078	 1
8	 1	 1	 1	 506	 6	 374	 1357202	 1357654	 1	 right	 L	 1.259	 0
8	 1	 2	 1	 520	 -8	 375	 1362219	 1362684	 1	 left	 L	 1.083	 0
8	 1	 3	 1	 507	 -5	 382	 1365251	 1365684	 1	 right	 R	 1.913	 1
8	 1	 4	 1	 500	 -12	 368	 1370345	 1370739	 1	 right	 R	 0.980	 1
8	 1	 5	 1	 498	 -14	 358	 1374275	 1374685	 0	 x	 R	 1.643	 0
8	 1	 6	 1	 503	 9	 363	 1377568	 1378025	 1	 left	 L	 2.071	 1
8	 1	 7	 1	 495	 17	 352	 1381356	 1381839	 1	 right	 L	 1.341	 1
8	 1	 8	 1	 503	 9	 351	 1385579	 1385978	 1	 left	 L	 0.812	 0
8	 1	 9	 1	 503	 9	 362	 1387849	 1388438	 1	 right	 L	 1.696	 0
8	 1	 10	 1	 498	 14	 337	 1393085	 1393452	 1	 right	 L	 1.256	 0
8	 1	 11	 1	 494	 18	 338	 1396634	 1397070	 0	 x	 L	 2.105	 1
8	 1	 12	 1	 493	 19	 350	 1401178	 1401641	 0	 x	 L	 1.663	 0
8	 1	 13	 1	 498	 -14	 369	 1407247	 1407708	 0	 x	 R	 1.303	 0
8	 1	 14	 1	 504	 8	 378	 1410817	 1411429	 1	 right	 L	 0.874	 1
8	 1	 15	 1	 503	 -9	 372	 1413359	 1413905	 1	 right	 R	 1.152	 1
8	 1	 16	 1	 503	 -9	 368	 1415879	 1416400	 0	 x	 R	 1.476	 1
8	 1	 17	 1	 496	 -16	 374	 1418590	 1419056	 1	 left	 R	 1.467	 0
8	 1	 18	 1	 503	 9	 368	 1421365	 1421861	 0	 x	 L	 1.232	 0
8	 1	 19	 1	 509	 3	 385	 1425452	 1425979	 0	 x	 L	 1.405	 0
8	 1	 20	 1	 500	 12	 375	 1428327	 1428811	 0	 x	 L	 1.303	 1
8	 1	 21	 1	 496	 16	 368	 1431570	 1432073	 0	 x	 L	 1.736	 1
8	 1	 22	 1	 502	 -10	 357	 1435010	 1435514	 1	 left	 R	 1.351	 0
8	 1	 23	 1	 504	 8	 358	 1437959	 1438422	 0	 x	 L	 1.448	 0
8	 1	 24	 1	 504	 -8	 352	 1440812	 1441282	 1	 left	 R	 1.295	 0
8	 1	 25	 1	 498	 -14	 348	 1444469	 1444869	 0	 x	 R	 2.005	 1
8	 1	 26	 1	 498	 14	 354	 1447925	 1448407	 1	 left	 L	 1.585	 0
8	 1	 27	 1	 502	 10	 353	 1453483	 1454120	 0	 x	 L	 2.345	 0
8	 1	 28	 1	 500	 12	 352	 1457390	 1457955	 0	 x	 L	 4.237	 1
8	 1	 29	 1	 505	 7	 359	 1464041	 1464500	 0	 x	 L	 1.401	 1
8	 1	 30	 1	 499	 -13	 352	 1466817	 1467311	 0	 x	 R	 1.555	 0
8	 1	 31	 1	 500	 12	 363	 1470594	 1471080	 1	 left	 L	 1.700	 1
8	 1	 32	 1	 501	 -11	 362	 1473642	 1474088	 0	 x	 R	 1.474	 0
8	 1	 33	 1	 504	 8	 372	 1476576	 1477034	 0	 x	 L	 1.700	 0
8	 1	 34	 1	 510	 2	 375	 1479378	 1479892	 0	 x	 L	 2.162	 1
8	 1	 35	 1	 496	 -16	 366	 1482965	 1483538	 0	 x	 R	 1.536	 1
8	 1	 36	 1	 548	 36	 388	 1486326	 1486533	 0	 x	 R	 1.136	 0
8	 1	 37	 1	 493	 19	 379	 1489110	 1489604	 1	 right	 L	 1.929	 1
8	 1	 38	 1	 495	 -17	 365	 1492322	 1492750	 1	 left	 R	 1.361	 0
8	 1	 39	 1	 498	 14	 386	 1495146	 1495591	 1	 left	 L	 2.561	 0
8	 1	 40	 1	 506	 -6	 368	 1498940	 1499452	 0	 x	 R	 1.168	 1
8	 1	 41	 1	 496	 -16	 372	 1503174	 1503586	 1	 right	 R	 1.499	 1
8	 1	 42	 1	 497	 15	 371	 1508225	 1508653	 0	 x	 L	 1.254	 0
8	 1	 43	 1	 492	 -20	 371	 1510549	 1511049	 1	 left	 R	 1.262	 0
8	 1	 44	 1	 501	 -11	 375	 1513139	 1513618	 1	 left	 R	 2.738	 1
8	 1	 45	 1	 518	 -6	 367	 1519889	 1520294	 1	 left	 L	 2.074	 0
8	 1	 46	 1	 504	 -8	 373	 1524362	 1524824	 1	 right	 R	 1.741	 1
8	 1	 47	 1	 511	 -1	 365	 1528913	 1529268	 1	 right	 R	 0.783	 1
8	 1	 48	 1	 498	 -14	 364	 1532858	 1533191	 0	 x	 R	 1.700	 1
8	 1	 49	 1	 498	 -14	 358	 1536250	 1536713	 0	 x	 R	 1.745	 1
8	 1	 50	 1	 499	 -13	 356	 1540418	 1540845	 1	 left	 R	 1.753	 0
8	 1	 51	 1	 497	 -15	 349	 1543520	 1544079	 0	 x	 R	 1.221	 0
8	 1	 52	 1	 492	 -20	 349	 1546541	 1547000	 1	 left	 R	 1.336	 1
8	 1	 53	 1	 498	 -14	 349	 1549394	 1549832	 1	 right	 R	 1.170	 1
8	 1	 54	 1	 494	 18	 345	 1551913	 1552362	 1	 right	 L	 1.665	 0
8	 1	 55	 1	 493	 19	 344	 1555342	 1555780	 0	 x	 L	 3.255	 0
8	 1	 56	 1	 491	 -21	 347	 1560197	 1560709	 0	 x	 R	 1.778	 1
8	 1	 57	 1	 0	 0	 0	 1560197	 1560709	 120	 x	 x	 1.778	 0
8	 1	 58	 1	 496	 16	 345	 1566848	 1567289	 1	 left	 L	 1.672	 0
8	 1	 59	 1	 502	 -10	 357	 1571779	 1572255	 0	 x	 R	 1.835	 1
8	 1	 60	 1	 493	 19	 365	 1575719	 1575998	 1	 left	 L	 1.445	 1
8	 1	 61	 1	 540	 -28	 355	 1579813	 1580228	 0	 x	 L	 1.610	 1
8	 1	 62	 1	 497	 -15	 381	 1613475	 1613990	 0	 x	 R	 2.439	 1
8	 1	 63	 1	 504	 8	 363	 1618499	 1618938	 0	 x	 L	 1.621	 0
8	 1	 64	 1	 493	 19	 358	 1622864	 1623373	 0	 x	 L	 1.377	 1
8	 1	 65	 1	 497	 -15	 365	 1626391	 1626813	 0	 x	 R	 1.303	 1
8	 1	 66	 1	 490	 -22	 351	 1630141	 1630679	 0	 x	 R	 1.204	 1
8	 1	 67	 1	 490	 22	 342	 1633227	 1633692	 0	 x	 L	 1.035	 1
8	 1	 68	 1	 482	 30	 355	 1635546	 1636204	 1	 right	 L	 1.391	 0
8	 1	 69	 1	 489	 -23	 344	 1638316	 1638844	 0	 x	 R	 1.320	 0
8	 1	 70	 1	 488	 -24	 337	 1640977	 1641564	 0	 x	 R	 1.753	 1
8	 1	 71	 1	 483	 29	 335	 1645021	 1645569	 1	 right	 L	 1.126	 0
8	 1	 72	 1	 483	 -29	 336	 1648461	 1648853	 1	 left	 R	 1.011	 1
8	 1	 73	 1	 492	 20	 339	 1650899	 1651496	 1	 right	 L	 1.023	 1
8	 1	 74	 1	 498	 -14	 355	 1655254	 1655830	 1	 right	 R	 0.888	 1
8	 1	 75	 1	 497	 15	 341	 1658312	 1658725	 0	 x	 L	 2.574	 1
8	 1	 76	 1	 490	 22	 358	 1663074	 1663507	 1	 left	 L	 1.445	 0
8	 1	 77	 1	 491	 21	 373	 1666216	 1666653	 0	 x	 L	 2.686	 0
8	 1	 78	 1	 485	 -27	 376	 1670232	 1670596	 1	 right	 R	 1.413	 1
8	 1	 79	 1	 485	 27	 349	 1673318	 1673736	 0	 x	 L	 1.652	 0
8	 1	 80	 1	 496	 -16	 359	 1679239	 1679812	 1	 right	 R	 0.837	 1
8	 1	 81	 1	 500	 12	 363	 1682331	 1682836	 1	 left	 L	 0.815	 1
8	 1	 82	 1	 500	 -12	 352	 1685074	 1685616	 1	 left	 R	 2.119	 0
8	 1	 83	 1	 499	 -13	 355	 1689635	 1690102	 0	 x	 R	 2.515	 1
8	 1	 84	 1	 498	 14	 354	 1693755	 1694310	 1	 right	 L	 1.712	 0
8	 1	 85	 1	 497	 15	 362	 1696901	 1697392	 1	 right	 L	 1.204	 1
8	 1	 86	 1	 496	 -16	 364	 1699340	 1699932	 0	 x	 R	 0.838	 0
8	 1	 87	 1	 491	 21	 366	 1701560	 1702071	 0	 x	 L	 1.328	 0
8	 1	 88	 1	 493	 -19	 352	 1705990	 1706449	 1	 left	 R	 1.305	 0
8	 1	 89	 1	 492	 -20	 361	 1709495	 1709941	 1	 right	 R	 1.540	 1
8	 1	 90	 1	 493	 -19	 362	 1713583	 1714133	 0	 x	 R	 1.000	 0
8	 1	 91	 1	 492	 20	 365	 1716375	 1716860	 1	 left	 L	 0.947	 1
8	 1	 92	 1	 490	 -22	 365	 1718987	 1719452	 0	 x	 R	 1.637	 1
8	 1	 93	 1	 492	 20	 368	 1721899	 1722443	 0	 x	 L	 1.787	 1
8	 1	 94	 1	 491	 -21	 362	 1725061	 1725537	 1	 left	 R	 1.531	 0
8	 1	 95	 1	 498	 14	 372	 1728065	 1728492	 0	 x	 L	 1.247	 0
8	 1	 96	 1	 503	 -9	 366	 1731430	 1731866	 0	 x	 R	 1.204	 1
9	 1	 1	 1	 503	 -9	 394	 5337222	 5337604	 0	 x	 R	 1.318	 1
9	 1	 2	 1	 514	 -2	 388	 5340292	 5340680	 0	 x	 L	 2.957	 1
9	 1	 3	 1	 502	 -10	 402	 5344929	 5345284	 0	 x	 R	 2.375	 1
9	 1	 4	 1	 505	 -7	 396	 5348755	 5349113	 1	 left	 R	 0.970	 1
9	 1	 5	 1	 420	 92	 364	 5351330	 5351495	 1	 right	 L	 1.280	 0
9	 1	 6	 1	 502	 10	 404	 5353735	 5354136	 0	 x	 L	 2.702	 1
9	 1	 7	 1	 515	 3	 393	 5357985	 5358345	 1	 left	 R	 2.904	 0
9	 1	 8	 1	 511	 -1	 404	 5362150	 5362573	 0	 x	 R	 3.040	 0
9	 1	 9	 1	 421	 91	 313	 5366834	 5366979	 1	 right	 L	 4.291	 1
9	 1	 10	 1	 511	 -1	 407	 5372344	 5372607	 0	 x	 R	 3.030	 1
9	 1	 11	 1	 507	 5	 357	 5377229	 5377417	 0	 x	 L	 4.502	 1
9	 1	 12	 1	 514	 -2	 411	 5383278	 5383682	 1	 left	 L	 0.985	 1
9	 1	 13	 1	 0	 0	 0	 5383278	 5383682	 0	 x	 R	 6.162	 0
9	 1	 14	 1	 459	 53	 354	 5394581	 5394793	 1	 left	 L	 1.008	 1
9	 1	 15	 1	 465	 47	 362	 5397261	 5397495	 0	 x	 L	 4.485	 1
9	 1	 16	 1	 422	 -90	 356	 5403722	 5404009	 0	 x	 R	 5.172	 1
9	 1	 17	 1	 441	 71	 340	 5410154	 5410343	 0	 x	 L	 4.500	 1
9	 1	 18	 1	 451	 61	 376	 5415820	 5416040	 1	 left	 L	 0.820	 1
9	 1	 19	 1	 391	 -121	 354	 5418442	 5418637	 0	 x	 R	 1.491	 0
9	 1	 20	 1	 478	 34	 344	 5421326	 5421533	 1	 right	 L	 2.470	 0
9	 1	 21	 1	 503	 9	 404	 5424941	 5425172	 0	 x	 L	 1.892	 1
9	 1	 22	 1	 418	 94	 356	 5428122	 5428377	 0	 x	 L	 2.426	 1
9	 1	 23	 1	 465	 -47	 338	 5431802	 5432015	 0	 x	 R	 3.289	 1
9	 1	 24	 1	 466	 -46	 354	 5436452	 5436685	 0	 x	 R	 2.243	 1
9	 1	 25	 1	 441	 71	 341	 5439920	 5440208	 1	 left	 L	 0.806	 1
9	 1	 26	 1	 468	 -44	 326	 5442299	 5442523	 0	 x	 R	 2.593	 0
9	 1	 27	 1	 438	 74	 358	 5446413	 5446587	 1	 left	 L	 0.928	 1
9	 1	 28	 1	 413	 99	 340	 5450578	 5450820	 1	 left	 L	 0.704	 1
9	 1	 29	 1	 330	 182	 372	 5452880	 5453103	 1	 right	 L	 2.925	 0
9	 1	 30	 1	 435	 77	 279	 5457265	 5457476	 1	 right	 L	 4.252	 1
9	 1	 31	 1	 518	 -6	 415	 5463079	 5463484	 1	 left	 L	 0.719	 1
9	 1	 32	 1	 407	 -105	 404	 5465624	 5465844	 1	 left	 R	 1.294	 1
9	 1	 33	 1	 295	 -217	 358	 5468139	 5468455	 1	 left	 R	 2.329	 1
9	 1	 34	 1	 503	 -9	 419	 5471744	 5472095	 0	 x	 R	 3.069	 0
9	 1	 35	 1	 308	 204	 394	 5476320	 5476620	 1	 left	 L	 0.809	 1
9	 1	 36	 1	 433	 79	 401	 5478745	 5479085	 0	 x	 L	 2.470	 0
9	 1	 37	 1	 402	 -110	 373	 5482769	 5483043	 0	 x	 R	 2.341	 1
9	 1	 38	 1	 310	 202	 391	 5486288	 5486521	 0	 x	 L	 2.229	 1
9	 1	 39	 1	 654	 142	 386	 5489884	 5490112	 1	 right	 R	 0.746	 1
9	 1	 40	 1	 407	 105	 397	 5492246	 5492458	 0	 x	 L	 1.698	 0
9	 1	 41	 1	 409	 -103	 392	 5495855	 5496103	 1	 left	 R	 2.232	 0
9	 1	 42	 1	 375	 -137	 340	 5501002	 5501249	 1	 right	 R	 1.070	 1
9	 1	 43	 1	 424	 88	 303	 5503935	 5504112	 0	 x	 L	 3.344	 1
9	 1	 44	 1	 385	 -127	 342	 5508417	 5508730	 0	 x	 R	 3.752	 1
9	 1	 45	 1	 376	 136	 282	 5513367	 5513614	 0	 x	 L	 2.929	 1
9	 1	 46	 1	 427	 85	 311	 5517346	 5517597	 1	 left	 L	 0.752	 1
9	 1	 47	 1	 452	 -60	 361	 5520059	 5520442	 1	 right	 R	 0.838	 1
9	 1	 48	 1	 460	 52	 324	 5523717	 5523947	 0	 x	 L	 2.680	 1
9	 1	 49	 1	 509	 -3	 396	 5528919	 5529314	 1	 right	 R	 0.743	 1
9	 1	 50	 1	 465	 47	 368	 5531869	 5532215	 1	 right	 L	 1.225	 1
9	 1	 51	 1	 502	 -10	 328	 5534600	 5534967	 0	 x	 R	 5.421	 1
9	 1	 52	 1	 363	 149	 334	 5541290	 5541508	 0	 x	 L	 3.294	 1
9	 1	 53	 1	 514	 2	 393	 5545889	 5546297	 1	 right	 R	 0.673	 1
9	 1	 54	 1	 509	 -3	 414	 5548039	 5548488	 1	 right	 R	 0.673	 1
9	 1	 55	 1	 517	 5	 414	 5550320	 5550764	 0	 x	 R	 4.231	 1
9	 1	 56	 1	 422	 90	 373	 5556090	 5556329	 0	 x	 L	 2.752	 1
9	 1	 57	 1	 458	 54	 347	 5560026	 5560428	 0	 x	 L	 3.673	 1
9	 1	 58	 1	 516	 4	 391	 5564943	 5565302	 1	 right	 R	 0.624	 1
9	 1	 59	 1	 505	 7	 407	 5567713	 5568086	 0	 x	 L	 3.465	 1
9	 1	 60	 1	 510	 2	 398	 5572531	 5572982	 1	 left	 L	 0.839	 1
9	 1	 61	 1	 507	 -5	 408	 5574719	 5575105	 0	 x	 R	 3.160	 0
9	 1	 62	 1	 474	 38	 383	 5579210	 5579467	 0	 x	 L	 3.032	 1
9	 1	 63	 1	 525	 13	 399	 5583135	 5583527	 1	 right	 R	 0.662	 1
9	 1	 64	 1	 511	 -1	 412	 5585440	 5585912	 0	 x	 R	 2.625	 1
9	 1	 65	 1	 499	 13	 405	 5589714	 5590097	 0	 x	 L	 3.954	 0
9	 1	 66	 1	 450	 -62	 378	 5594957	 5595204	 1	 left	 R	 1.175	 1
9	 1	 67	 1	 430	 -82	 421	 5597594	 5597842	 1	 left	 R	 2.180	 1
9	 1	 68	 1	 505	 7	 406	 5600981	 5601393	 1	 left	 L	 0.880	 1
9	 1	 69	 1	 509	 -3	 408	 5603310	 5603679	 1	 right	 R	 0.822	 1
9	 1	 70	 1	 505	 7	 401	 5605878	 5606240	 1	 right	 L	 2.915	 0
9	 1	 71	 1	 460	 52	 387	 5610460	 5610840	 1	 right	 L	 1.044	 1
9	 1	 72	 1	 474	 38	 372	 5612904	 5613157	 0	 x	 L	 4.093	 1
9	 1	 73	 1	 440	 72	 372	 5618278	 5618502	 1	 right	 L	 2.488	 1
9	 1	 74	 1	 483	 29	 332	 5621968	 5622208	 1	 right	 L	 4.461	 0
9	 1	 75	 1	 508	 -4	 404	 5627938	 5628330	 0	 x	 R	 3.604	 1
9	 1	 76	 1	 467	 45	 362	 5632842	 5633088	 1	 right	 L	 3.626	 0
9	 1	 77	 1	 467	 -45	 375	 5637597	 5637915	 1	 right	 R	 0.692	 1
9	 1	 78	 1	 510	 2	 410	 5639514	 5639970	 0	 x	 L	 1.407	 0
9	 1	 79	 1	 512	 0	 404	 5642159	 5642585	 1	 left	 R	 3.058	 0
9	 1	 80	 1	 488	 -24	 397	 5646614	 5646884	 1	 left	 R	 0.823	 1
9	 1	 81	 1	 499	 -13	 405	 5648445	 5648824	 1	 right	 R	 0.624	 1
9	 1	 82	 1	 506	 -6	 411	 5650219	 5650643	 0	 x	 R	 2.854	 0
9	 1	 83	 1	 503	 -9	 402	 5655238	 5655746	 0	 x	 R	 1.341	 0
9	 1	 84	 1	 511	 1	 418	 5657976	 5658372	 1	 right	 L	 2.007	 1
9	 1	 85	 1	 469	 43	 373	 5661704	 5661913	 0	 x	 L	 2.855	 1
9	 1	 86	 1	 433	 -79	 370	 5665806	 5666038	 1	 left	 R	 3.692	 0
9	 1	 87	 1	 424	 -88	 307	 5670594	 5670908	 0	 x	 R	 4.014	 0
9	 1	 88	 1	 437	 -75	 359	 5675713	 5676009	 1	 left	 R	 1.106	 1
9	 1	 89	 1	 385	 -127	 394	 5678960	 5679251	 0	 x	 R	 3.693	 1
9	 1	 90	 1	 357	 155	 310	 5683990	 5684312	 0	 x	 L	 7.169	 0
9	 1	 91	 1	 465	 -47	 364	 5693152	 5693637	 1	 left	 R	 1.398	 1
9	 1	 92	 1	 419	 -93	 322	 5696145	 5696524	 0	 x	 R	 4.172	 1
9	 1	 93	 1	 513	 -1	 403	 5701430	 5701825	 1	 left	 L	 0.769	 1
9	 1	 94	 1	 421	 -91	 321	 5703633	 5703896	 1	 right	 R	 0.695	 1
9	 1	 95	 1	 500	 -12	 376	 5705634	 5705897	 0	 x	 R	 2.442	 0
9	 1	 96	 1	 427	 85	 335	 5709246	 5709516	 0	 x	 L	 1.982	 0
10	 1	 1	 1	 515	 3	 390	 9013663	 9014113	 0	 x	 R	 4.815	 1
10	 1	 2	 1	 520	 8	 383	 9023428	 9023798	 1	 left	 R	 2.243	 0
10	 1	 3	 1	 448	 -64	 129	 9028462	 9028942	 1	 left	 R	 3.772	 1
10	 1	 4	 1	 519	 7	 386	 9039451	 9039822	 0	 x	 R	 3.277	 1
10	 1	 5	 1	 514	 2	 390	 9047974	 9048419	 0	 x	 R	 4.176	 1
10	 1	 6	 1	 519	 7	 392	 9056503	 9056888	 1	 left	 R	 3.441	 0
10	 1	 7	 1	 522	 -10	 389	 9063205	 9063564	 0	 x	 L	 4.434	 0
10	 1	 8	 1	 518	 -6	 394	 9071698	 9072160	 0	 x	 L	 5.112	 1
10	 1	 9	 1	 524	 12	 393	 9081958	 9082338	 1	 left	 R	 3.806	 0
10	 1	 10	 1	 519	 -7	 379	 9088996	 9089456	 0	 x	 L	 3.940	 0
10	 1	 11	 1	 521	 9	 391	 9097595	 9097991	 0	 x	 R	 4.575	 1
10	 1	 12	 1	 473	 39	 164	 9103581	 9103886	 1	 right	 L	 2.301	 1
10	 1	 13	 1	 512	 0	 190	 9107408	 9107734	 0	 x	 L	 2.932	 1
10	 1	 14	 1	 514	 2	 395	 9118751	 9119229	 1	 right	 R	 3.647	 1
10	 1	 15	 1	 514	 -2	 389	 9125445	 9125709	 0	 x	 L	 2.377	 0
10	 1	 16	 1	 509	 3	 401	 9129702	 9130159	 0	 x	 L	 2.349	 0
10	 1	 17	 1	 509	 3	 387	 9134812	 9135227	 0	 x	 L	 2.232	 1
10	 1	 18	 1	 503	 9	 394	 9140293	 9140770	 1	 left	 L	 2.261	 1
10	 1	 19	 1	 498	 14	 393	 9144217	 9144654	 1	 right	 L	 4.283	 0
10	 1	 20	 1	 498	 14	 396	 9150667	 9151181	 1	 right	 L	 6.936	 0
10	 1	 21	 1	 512	 0	 380	 9159788	 9160189	 1	 left	 L	 7.367	 1
10	 1	 22	 1	 518	 6	 392	 9173107	 9173597	 0	 x	 R	 6.480	 1
10	 1	 23	 1	 526	 14	 399	 9181870	 9182260	 0	 x	 R	 3.686	 1
10	 1	 24	 1	 511	 1	 392	 9186610	 9187096	 0	 x	 L	 4.563	 1
10	 1	 25	 1	 515	 -3	 395	 9195035	 9195480	 1	 right	 L	 4.142	 1
10	 1	 26	 1	 519	 7	 387	 9200238	 9200471	 0	 x	 R	 6.692	 0
10	 1	 27	 1	 513	 1	 390	 9211488	 9211764	 0	 x	 R	 3.111	 1
10	 1	 28	 1	 446	 -66	 167	 9216206	 9216429	 1	 right	 R	 2.119	 1
10	 1	 29	 1	 513	 -1	 398	 9219125	 9219348	 0	 x	 L	 6.962	 1
10	 1	 30	 1	 435	 -77	 170	 9227324	 9227853	 0	 x	 R	 8.705	 1
10	 1	 31	 1	 503	 9	 391	 9237820	 9238289	 1	 right	 L	 4.013	 0
10	 1	 32	 1	 443	 -69	 211	 9243686	 9244040	 0	 x	 R	 5.770	 1
10	 1	 33	 1	 511	 -1	 388	 9252363	 9252819	 1	 left	 R	 2.935	 1
10	 1	 34	 1	 520	 8	 401	 9258350	 9258765	 1	 left	 R	 5.772	 0
10	 1	 35	 1	 512	 0	 389	 9267047	 9267287	 1	 right	 R	 4.358	 1
10	 1	 36	 1	 416	 -96	 211	 9272714	 9272995	 0	 x	 R	 2.613	 0
10	 1	 37	 1	 502	 -10	 390	 9276736	 9277292	 0	 x	 R	 5.423	 1
10	 1	 38	 1	 463	 49	 95	 9283234	 9283458	 1	 left	 L	 1.490	 1
10	 1	 39	 1	 451	 61	 166	 9285847	 9286127	 0	 x	 L	 6.045	 1
10	 1	 40	 1	 499	 -13	 378	 9294928	 9295115	 0	 x	 R	 6.243	 1
10	 1	 41	 1	 329	 183	 105	 9302330	 9302628	 1	 right	 L	 3.201	 1
10	 1	 42	 1	 508	 -4	 392	 9308574	 9309015	 1	 right	 R	 2.008	 1
10	 1	 43	 1	 508	 4	 398	 9312249	 9312692	 0	 x	 L	 4.343	 0
10	 1	 44	 1	 511	 1	 388	 9318851	 9319104	 1	 left	 L	 1.022	 1
10	 1	 45	 1	 495	 -17	 282	 9321478	 9321662	 0	 x	 R	 4.842	 0
10	 1	 46	 1	 506	 6	 383	 9328326	 9328896	 0	 x	 L	 4.034	 1
10	 1	 47	 1	 0	 0	 0	 9328326	 9328896	 0	 x	 L	 4.450	 1
10	 1	 48	 1	 509	 -3	 394	 9340333	 9340573	 0	 x	 R	 6.430	 1
10	 1	 49	 1	 511	 1	 297	 9348265	 9348821	 0	 x	 L	 5.455	 1
10	 1	 50	 1	 519	 7	 383	 9356738	 9356977	 0	 x	 R	 5.244	 0
10	 1	 51	 1	 504	 8	 389	 9366170	 9366714	 1	 left	 L	 1.256	 1
10	 1	 52	 1	 500	 12	 391	 9370992	 9371529	 0	 x	 L	 5.132	 1
10	 1	 53	 1	 498	 -14	 383	 9378111	 9378633	 1	 left	 R	 5.401	 0
10	 1	 54	 1	 435	 -77	 110	 9385747	 9386047	 1	 right	 R	 0.968	 1
10	 1	 55	 1	 516	 4	 397	 9389029	 9389356	 0	 x	 R	 6.476	 0
10	 1	 56	 1	 516	 -4	 391	 9398129	 9398381	 1	 left	 L	 1.646	 1
10	 1	 57	 1	 513	 1	 390	 9401885	 9402109	 1	 right	 R	 1.070	 1
10	 1	 58	 1	 520	 8	 394	 9403984	 9404373	 0	 x	 R	 2.122	 1
10	 1	 59	 1	 521	 9	 393	 9409309	 9409610	 1	 right	 R	 1.285	 1
10	 1	 60	 1	 520	 -8	 391	 9413727	 9414068	 1	 left	 L	 1.243	 1
10	 1	 61	 1	 439	 73	 177	 9417356	 9417720	 1	 right	 L	 4.518	 0
10	 1	 62	 1	 517	 5	 387	 9423769	 9424273	 1	 left	 R	 6.446	 0
10	 1	 63	 1	 508	 4	 390	 9434176	 9434651	 0	 x	 L	 10.161	 1
10	 1	 64	 1	 507	 -5	 380	 9447989	 9448794	 1	 left	 R	 6.746	 0
10	 1	 65	 1	 515	 3	 381	 9459772	 9460163	 1	 right	 R	 1.005	 1
10	 1	 66	 1	 503	 9	 395	 9463136	 9463616	 1	 left	 L	 0.933	 1
10	 1	 67	 1	 350	 162	 200	 9466337	 9466518	 0	 x	 L	 11.949	 1
10	 1	 68	 1	 511	 1	 394	 9481009	 9481333	 0	 x	 L	 8.319	 1
10	 1	 69	 1	 517	 5	 394	 9492227	 9492446	 0	 x	 R	 5.794	 0
10	 1	 70	 1	 514	 -2	 394	 9499678	 9500330	 0	 x	 L	 5.716	 1
10	 1	 71	 1	 502	 10	 392	 9509944	 9510452	 0	 x	 L	 7.844	 0
10	 1	 72	 1	 516	 4	 396	 9520051	 9520353	 0	 x	 R	 6.806	 1
10	 1	 73	 1	 453	 59	 189	 9529625	 9529882	 1	 left	 L	 0.976	 1
10	 1	 74	 1	 503	 -9	 369	 9531713	 9531961	 0	 x	 R	 4.756	 1
10	 1	 75	 1	 511	 -1	 390	 9539068	 9539591	 1	 left	 R	 4.815	 0
10	 1	 76	 1	 498	 14	 390	 9545250	 9545771	 1	 right	 L	 7.092	 1
10	 1	 77	 1	 503	 -9	 343	 9555144	 9555497	 0	 x	 R	 8.279	 1
10	 1	 78	 1	 600	 -88	 183	 9564738	 9565170	 1	 right	 L	 6.426	 0
10	 1	 79	 1	 437	 -75	 179	 9573930	 9574437	 1	 right	 R	 0.914	 1
10	 1	 80	 1	 508	 -4	 398	 9576121	 9576577	 1	 left	 R	 6.193	 0
10	 1	 81	 1	 472	 40	 268	 9586262	 9586594	 0	 x	 L	 9.370	 1
10	 1	 82	 1	 426	 -86	 211	 9599695	 9599965	 1	 left	 R	 7.854	 0
10	 1	 83	 1	 364	 148	 124	 9609402	 9609851	 1	 left	 L	 1.982	 1
10	 1	 84	 1	 501	 -11	 383	 9615145	 9615681	 1	 right	 R	 0.962	 1
10	 1	 85	 1	 509	 3	 392	 9618084	 9618512	 1	 right	 L	 5.761	 1
10	 1	 86	 1	 499	 13	 391	 9625519	 9626110	 1	 left	 L	 0.992	 1
10	 1	 87	 1	 504	 8	 386	 9627865	 9628269	 1	 left	 L	 0.716	 1
10	 1	 88	 1	 507	 -5	 384	 9631402	 9631902	 1	 right	 R	 0.849	 1
10	 1	 89	 1	 500	 -12	 389	 9634270	 9634766	 0	 x	 R	 7.495	 0
10	 1	 90	 1	 493	 19	 385	 9644038	 9644334	 1	 right	 L	 3.968	 0
10	 1	 91	 1	 388	 124	 173	 9651241	 9651466	 1	 right	 L	 3.246	 1
10	 1	 92	 1	 506	 6	 395	 9655948	 9656390	 0	 x	 L	 9.567	 1
10	 1	 93	 1	 505	 -7	 400	 9667366	 9667731	 1	 right	 R	 0.900	 1
10	 1	 94	 1	 506	 6	 392	 9670514	 9670924	 0	 x	 L	 8.396	 1
10	 1	 95	 1	 505	 7	 388	 9680762	 9681252	 0	 x	 L	 7.342	 1
10	 1	 96	 1	 503	 -9	 394	 9690253	 9690728	 0	 x	 R	 7.814	 1
11	 1	 1	 1	 522	 -10	 376	 6619417	 6619938	 0	 x	 L	 23.958	 1
11	 1	 2	 1	 513	 -1	 377	 6644703	 6645252	 1	 right	 L	 8.978	 1
11	 1	 3	 1	 512	 0	 380	 6655169	 6655573	 0	 x	 L	 23.720	 1
11	 1	 4	 1	 515	 -3	 395	 6681551	 6682071	 1	 left	 L	 1.667	 1
11	 1	 5	 1	 517	 5	 399	 6687172	 6687567	 0	 x	 R	 31.596	 1
11	 1	 6	 1	 524	 12	 383	 6720199	 6720787	 1	 right	 R	 1.768	 1
11	 1	 7	 1	 525	 -13	 379	 6725217	 6725928	 1	 right	 L	 10.140	 1
11	 1	 8	 1	 533	 21	 380	 6737125	 6737517	 1	 left	 R	 32.429	 0
11	 1	 9	 1	 527	 -15	 369	 6771219	 6771591	 0	 x	 L	 19.813	 1
11	 1	 10	 1	 517	 -5	 391	 6793577	 6794160	 0	 x	 L	 27.967	 1
11	 1	 11	 1	 522	 -10	 379	 6823294	 6823703	 1	 left	 L	 1.293	 1
11	 1	 12	 1	 523	 -11	 389	 6826636	 6827105	 1	 left	 L	 1.413	 1
11	 1	 13	 1	 520	 8	 389	 6829537	 6829922	 0	 x	 R	 20.708	 0
11	 1	 14	 1	 522	 10	 382	 6851808	 6852265	 1	 right	 R	 1.474	 1
11	 1	 15	 1	 531	 -19	 360	 6857218	 6857598	 1	 right	 L	 13.706	 1
11	 1	 16	 1	 511	 -1	 386	 6872675	 6873153	 0	 x	 R	 17.565	 1
11	 1	 17	 1	 515	 -3	 380	 6892095	 6892527	 0	 x	 L	 19.423	 1
11	 1	 18	 1	 527	 15	 380	 6913272	 6913735	 0	 x	 R	 28.128	 1
11	 1	 19	 1	 509	 3	 384	 6943763	 6944196	 0	 x	 L	 25.527	 1
11	 1	 20	 1	 511	 1	 390	 6970943	 6971419	 0	 x	 L	 19.895	 1
11	 1	 21	 1	 518	 6	 387	 6992790	 6993261	 0	 x	 R	 19.546	 1
11	 1	 22	 1	 518	 6	 390	 7015698	 7016185	 0	 x	 R	 20.578	 1
11	 1	 23	 1	 526	 -14	 377	 7039248	 7039732	 0	 x	 L	 19.286	 1
11	 1	 24	 1	 514	 -2	 382	 7062787	 7063313	 1	 right	 L	 2.432	 1
11	 1	 25	 1	 518	 6	 383	 7067420	 7067860	 1	 left	 R	 10.683	 1
11	 1	 26	 1	 514	 2	 379	 7079850	 7080289	 0	 x	 R	 31.813	 1
11	 1	 27	 1	 512	 0	 391	 7113317	 7113724	 0	 x	 R	 18.095	 1
11	 1	 28	 1	 517	 -5	 388	 7133662	 7134066	 0	 x	 L	 23.720	 1
11	 1	 29	 1	 499	 -13	 384	 7159635	 7160045	 0	 x	 R	 28.658	 1
11	 1	 30	 1	 509	 3	 388	 7189547	 7189935	 0	 x	 L	 13.173	 1
11	 1	 31	 1	 508	 -4	 391	 7204374	 7204822	 1	 left	 R	 7.080	 1
11	 1	 32	 1	 505	 7	 376	 7213506	 7213878	 1	 right	 L	 18.724	 0
11	 1	 33	 1	 509	 -3	 391	 7234292	 7234686	 0	 x	 R	 27.139	 1
11	 1	 34	 1	 520	 -8	 377	 7263585	 7264025	 1	 left	 L	 1.230	 1
11	 1	 35	 1	 519	 7	 383	 7267965	 7268397	 1	 left	 R	 14.485	 1
11	 1	 36	 1	 506	 -6	 381	 7285099	 7285391	 1	 right	 R	 0.984	 1
11	 1	 37	 1	 511	 1	 389	 7287832	 7288213	 0	 x	 L	 23.508	 1
11	 1	 38	 1	 512	 0	 368	 7315492	 7315942	 1	 left	 L	 1.033	 1
11	 1	 39	 1	 504	 8	 380	 7318376	 7318783	 1	 right	 L	 27.687	 0
11	 1	 40	 1	 512	 0	 379	 7348528	 7348923	 1	 right	 R	 1.219	 1
11	 1	 41	 1	 508	 -4	 388	 7351196	 7351563	 1	 right	 R	 0.852	 1
11	 1	 42	 1	 613	 101	 430	 7354435	 7354814	 1	 left	 R	 19.470	 0
11	 1	 43	 1	 506	 6	 387	 7380368	 7380848	 1	 left	 L	 1.023	 1
11	 1	 44	 1	 511	 1	 387	 7383672	 7384037	 1	 left	 L	 0.818	 1
11	 1	 45	 1	 505	 7	 392	 7387841	 7388237	 1	 right	 L	 22.657	 0
11	 1	 46	 1	 498	 -14	 385	 7412459	 7412903	 1	 left	 R	 24.069	 1
11	 1	 47	 1	 521	 9	 381	 7438082	 7438482	 0	 x	 R	 22.645	 1
11	 1	 48	 1	 510	 -2	 384	 7462580	 7462933	 0	 x	 R	 12.424	 1
11	 1	 49	 1	 517	 -5	 379	 7476856	 7477235	 1	 left	 L	 1.060	 1
11	 1	 50	 1	 511	 1	 372	 7479365	 7479707	 0	 x	 L	 17.097	 1
11	 1	 51	 1	 499	 -13	 386	 7498414	 7498839	 1	 left	 R	 9.072	 1
11	 1	 52	 1	 505	 7	 379	 7508924	 7509417	 0	 x	 L	 23.681	 1
11	 1	 53	 1	 500	 12	 383	 7534260	 7534697	 1	 right	 L	 21.023	 0
11	 1	 54	 1	 505	 -7	 386	 7556793	 7557217	 0	 x	 R	 28.342	 1
11	 1	 55	 1	 505	 -7	 377	 7587288	 7587707	 0	 x	 R	 28.478	 1
11	 1	 56	 1	 508	 -4	 380	 7617739	 7618255	 1	 right	 R	 0.996	 1
11	 1	 57	 1	 504	 -8	 378	 7620298	 7620512	 0	 x	 R	 23.969	 1
11	 1	 58	 1	 505	 -7	 384	 7646118	 7646511	 0	 x	 R	 30.512	 1
11	 1	 59	 1	 515	 3	 379	 7678583	 7679053	 1	 left	 R	 22.846	 1
11	 1	 60	 1	 506	 -6	 383	 7702879	 7703271	 0	 x	 R	 25.291	 1
11	 1	 61	 1	 507	 -5	 385	 7729522	 7729946	 1	 left	 R	 14.742	 1
11	 1	 62	 1	 512	 0	 396	 7745817	 7746214	 1	 left	 R	 23.778	 0
11	 1	 63	 1	 509	 -3	 381	 7771958	 7772366	 1	 right	 R	 1.151	 1
11	 1	 64	 1	 502	 10	 381	 7775060	 7775456	 1	 right	 L	 18.275	 0
11	 1	 65	 1	 510	 2	 386	 7796298	 7796641	 0	 x	 L	 24.047	 1
11	 1	 66	 1	 506	 -6	 384	 7822498	 7823061	 1	 left	 R	 20.095	 1
11	 1	 67	 1	 512	 0	 380	 7846446	 7846851	 1	 left	 L	 1.381	 1
11	 1	 68	 1	 499	 -13	 388	 7850479	 7850820	 1	 left	 R	 3.652	 1
11	 1	 69	 1	 504	 -8	 380	 7855987	 7856445	 0	 x	 R	 19.989	 1
11	 1	 70	 1	 713	 -201	 312	 7877974	 7878240	 1	 right	 L	 8.796	 1
11	 1	 71	 1	 508	 -4	 377	 7887772	 7888248	 0	 x	 R	 22.297	 1
11	 1	 72	 1	 491	 -21	 382	 7911818	 7912213	 0	 x	 R	 18.288	 1
11	 1	 73	 1	 514	 2	 384	 7931885	 7932120	 0	 x	 R	 15.979	 1
11	 1	 74	 1	 504	 -8	 382	 7950418	 7950782	 1	 right	 R	 0.904	 1
11	 1	 75	 1	 505	 7	 382	 7952889	 7953303	 0	 x	 L	 18.664	 1
11	 1	 76	 1	 503	 -9	 392	 7973206	 7973633	 1	 right	 R	 1.039	 1
11	 1	 77	 1	 646	 -134	 366	 7976238	 7976418	 0	 x	 L	 17.928	 1
11	 1	 78	 1	 498	 14	 387	 7995271	 7995743	 0	 x	 L	 25.570	 1
11	 1	 79	 1	 510	 2	 384	 8022795	 8023022	 0	 x	 L	 22.045	 1
11	 1	 80	 1	 507	 -5	 378	 8048190	 8048407	 0	 x	 R	 23.840	 1
11	 1	 81	 1	 501	 11	 377	 8073781	 8074216	 1	 left	 L	 0.892	 1
11	 1	 82	 1	 503	 9	 387	 8078223	 8078668	 0	 x	 L	 22.128	 1
11	 1	 83	 1	 497	 15	 389	 8101903	 8102340	 0	 x	 L	 25.078	 1
11	 1	 84	 1	 434	 78	 266	 8129113	 8129374	 0	 x	 L	 18.919	 1
11	 1	 85	 1	 491	 21	 381	 8149729	 8150153	 1	 right	 L	 16.068	 1
11	 1	 86	 1	 498	 14	 374	 8167450	 8167859	 0	 x	 L	 15.703	 1
11	 1	 87	 1	 502	 10	 375	 8184605	 8184906	 0	 x	 L	 13.754	 1
11	 1	 88	 1	 471	 41	 276	 8200160	 8200437	 1	 left	 L	 0.837	 1
11	 1	 89	 1	 500	 -12	 370	 8203001	 8203387	 1	 right	 R	 0.812	 1
11	 1	 90	 1	 500	 -12	 372	 8205565	 8206005	 1	 right	 R	 0.762	 1
11	 1	 91	 1	 493	 19	 373	 8208205	 8208581	 1	 right	 L	 3.601	 1
11	 1	 92	 1	 491	 -21	 379	 8213354	 8213733	 0	 x	 R	 21.969	 1
11	 1	 93	 1	 502	 -10	 376	 8237072	 8237503	 0	 x	 R	 22.360	 1
11	 1	 94	 1	 666	 -154	 298	 8261698	 8261846	 1	 left	 L	 0.842	 1
11	 1	 95	 1	 492	 20	 275	 8264367	 8264628	 0	 x	 L	 16.970	 1
11	 1	 96	 1	 497	 -15	 381	 8282551	 8282988	 1	 right	 R	 0.782	 1
12	 1	 1	 1	 513	 1	 372	 10996964	 10997238	 0	 x	 R	 0.797	 0
12	 1	 2	 1	 517	 -5	 389	 11000920	 11001217	 0	 x	 L	 6.134	 0
12	 1	 3	 1	 526	 14	 391	 11010315	 11010733	 0	 x	 R	 2.661	 1
12	 1	 4	 1	 521	 9	 404	 11015028	 11015453	 1	 right	 R	 2.300	 0
12	 1	 5	 1	 522	 10	 409	 11019485	 11019923	 1	 left	 R	 1.225	 0
12	 1	 6	 1	 467	 -45	 342	 11024096	 11024293	 0	 x	 R	 1.614	 1
12	 1	 7	 1	 522	 -10	 402	 11027829	 11028249	 0	 x	 L	 1.574	 0
12	 1	 8	 1	 523	 -11	 405	 11034464	 11034921	 1	 right	 L	 1.961	 1
12	 1	 9	 1	 522	 10	 418	 11038677	 11039100	 0	 x	 R	 1.250	 1
12	 1	 10	 1	 524	 -12	 413	 11041877	 11042176	 1	 right	 L	 1.253	 1
12	 1	 11	 1	 518	 -6	 417	 11047275	 11047713	 1	 right	 L	 1.125	 1
12	 1	 12	 1	 520	 8	 421	 11050699	 11051289	 1	 left	 R	 1.862	 0
12	 1	 13	 1	 523	 -11	 414	 11057769	 11058264	 0	 x	 L	 1.700	 0
12	 1	 14	 1	 521	 -9	 427	 11062184	 11062621	 0	 x	 L	 0.802	 0
12	 1	 15	 1	 518	 6	 423	 11066445	 11066923	 1	 left	 R	 0.922	 0
12	 1	 16	 1	 505	 -7	 351	 11070137	 11070543	 1	 right	 R	 1.152	 0
12	 1	 17	 1	 514	 -2	 418	 11077107	 11077607	 1	 right	 L	 0.873	 1
12	 1	 18	 1	 508	 4	 425	 11080661	 11081097	 1	 left	 L	 0.822	 1
12	 1	 19	 1	 513	 -1	 418	 11086235	 11086823	 1	 left	 L	 1.704	 1
12	 1	 20	 1	 509	 -3	 402	 11091606	 11092117	 1	 right	 R	 0.900	 0
12	 1	 21	 1	 519	 -7	 406	 11095868	 11096300	 0	 x	 L	 0.851	 0
12	 1	 22	 1	 523	 -11	 392	 11101831	 11102134	 1	 left	 L	 1.406	 1
12	 1	 23	 1	 521	 -9	 381	 11105760	 11105957	 1	 left	 L	 1.743	 1
12	 1	 24	 1	 511	 -1	 408	 11145826	 11146521	 0	 x	 R	 5.793	 1
12	 1	 25	 1	 527	 15	 421	 11156870	 11157328	 0	 x	 R	 2.343	 1
12	 1	 26	 1	 517	 5	 436	 11163781	 11164217	 0	 x	 R	 4.245	 0
12	 1	 27	 1	 516	 -4	 436	 11173884	 11174308	 0	 x	 L	 6.251	 0
12	 1	 28	 1	 513	 -1	 441	 11184409	 11184868	 0	 x	 L	 2.761	 0
12	 1	 29	 1	 446	 66	 452	 11193453	 11193952	 1	 left	 L	 8.645	 1
12	 1	 30	 1	 524	 12	 426	 11204428	 11204916	 1	 right	 R	 16.166	 0
12	 1	 31	 1	 513	 1	 370	 11265962	 11266502	 0	 x	 R	 16.289	 1
12	 1	 32	 1	 526	 -14	 432	 11287417	 11287859	 0	 x	 L	 9.367	 0
12	 1	 33	 1	 514	 -2	 441	 11300142	 11300621	 1	 left	 L	 4.619	 1
12	 1	 34	 1	 516	 4	 435	 11310326	 11310815	 1	 left	 R	 19.525	 1
12	 1	 35	 1	 521	 -9	 436	 11345127	 11345600	 0	 x	 L	 12.480	 1
12	 1	 36	 1	 537	 -25	 420	 11360758	 11361217	 1	 left	 L	 16.686	 0
12	 1	 37	 1	 534	 22	 417	 11381908	 11382367	 0	 x	 R	 15.554	 1
12	 1	 38	 1	 538	 -26	 417	 11403015	 11403301	 0	 x	 L	 6.643	 0
12	 1	 39	 1	 534	 22	 424	 11414417	 11414858	 1	 left	 R	 29.121	 0
12	 1	 40	 1	 526	 -14	 425	 11448798	 11449293	 0	 x	 L	 6.776	 0
12	 1	 41	 1	 531	 -19	 415	 11457937	 11458397	 1	 left	 L	 9.112	 1
12	 1	 42	 1	 516	 4	 424	 11470499	 11471022	 1	 right	 R	 18.547	 1
12	 1	 43	 1	 537	 -25	 418	 11490713	 11491133	 1	 right	 L	 13.320	 1
12	 1	 44	 1	 542	 -30	 354	 11506082	 11506508	 0	 x	 L	 33.662	 1
12	 1	 45	 1	 541	 29	 428	 11557701	 11558221	 0	 x	 R	 14.545	 0
12	 1	 46	 1	 534	 22	 428	 11576239	 11576679	 0	 x	 R	 9.885	 0
12	 1	 47	 1	 525	 -13	 422	 11590874	 11591310	 0	 x	 L	 19.468	 0
12	 1	 48	 1	 529	 17	 407	 11619503	 11619943	 1	 right	 R	 11.608	 1
12	 1	 49	 1	 553	 41	 432	 11635063	 11635505	 0	 x	 R	 38.112	 1
12	 1	 50	 1	 544	 -32	 414	 11675725	 11676197	 0	 x	 L	 26.342	 1
12	 1	 51	 1	 518	 -6	 397	 11705923	 11706349	 0	 x	 L	 19.263	 0
12	 1	 52	 1	 530	 -18	 400	 11727147	 11727577	 0	 x	 L	 15.576	 0
12	 1	 53	 1	 529	 17	 417	 11745626	 11746043	 0	 x	 R	 34.110	 0
12	 1	 54	 1	 498	 -14	 330	 11785607	 11786040	 1	 left	 R	 12.809	 1
12	 1	 55	 1	 520	 8	 415	 11818188	 11818645	 1	 right	 R	 23.763	 1
12	 1	 56	 1	 546	 -34	 400	 11846768	 11846958	 1	 left	 L	 23.120	 1
12	 1	 57	 1	 523	 -11	 398	 11892176	 11892757	 1	 right	 L	 14.871	 1
12	 1	 58	 1	 512	 0	 402	 11909384	 11909787	 0	 x	 R	 7.276	 0
12	 1	 59	 1	 489	 -23	 312	 11918756	 11918989	 0	 x	 R	 29.058	 1
12	 1	 60	 1	 502	 -10	 405	 11953933	 11954387	 1	 left	 R	 9.923	 1
12	 1	 61	 1	 491	 21	 412	 11975818	 11976268	 1	 right	 L	 10.939	 1
12	 1	 62	 1	 496	 16	 396	 11989611	 11990040	 0	 x	 L	 16.273	 0
12	 1	 63	 1	 500	 -12	 392	 12010646	 12011057	 1	 left	 R	 20.256	 1
12	 1	 64	 1	 508	 -4	 408	 12047455	 12047947	 1	 right	 R	 15.021	 1
12	 1	 65	 1	 502	 -10	 387	 12064327	 12064721	 0	 x	 R	 12.368	 0
12	 1	 66	 1	 502	 10	 395	 12088852	 12089256	 0	 x	 L	 15.710	 0
12	 1	 67	 1	 494	 -18	 384	 12108614	 12108995	 0	 x	 R	 13.372	 0
12	 1	 68	 1	 525	 -13	 389	 12141182	 12141392	 0	 x	 L	 11.468	 0
12	 1	 69	 1	 517	 -5	 410	 12156009	 12156410	 1	 right	 L	 14.648	 1
12	 1	 70	 1	 496	 16	 398	 12174492	 12174963	 0	 x	 L	 23.304	 0
12	 1	 71	 1	 499	 -13	 400	 12209690	 12209917	 1	 left	 R	 7.776	 1
12	 1	 72	 1	 507	 -5	 393	 12231515	 12231978	 1	 right	 R	 13.551	 1
12	 1	 73	 1	 501	 11	 393	 12249617	 12250177	 0	 x	 L	 17.997	 0
12	 1	 74	 1	 489	 -23	 380	 12270967	 12271187	 0	 x	 R	 19.580	 0
12	 1	 75	 1	 488	 -24	 381	 12305616	 12306074	 1	 right	 R	 8.205	 1
12	 1	 76	 1	 499	 13	 384	 12320873	 12321081	 1	 left	 L	 15.518	 1
12	 1	 77	 1	 472	 -40	 417	 12341643	 12342208	 0	 x	 R	 13.715	 0
12	 1	 78	 1	 517	 5	 375	 13460031	 13460886	 0	 x	 R	 5.336	 1
12	 1	 79	 1	 523	 -11	 394	 13467716	 13468113	 0	 x	 L	 12.437	 0
12	 1	 80	 1	 519	 7	 385	 13482215	 13482459	 0	 x	 R	 5.501	 0
12	 1	 81	 1	 527	 -15	 349	 13490777	 13491187	 1	 left	 L	 2.991	 1
12	 1	 82	 1	 528	 16	 377	 13496219	 13496470	 1	 right	 R	 4.831	 1
12	 1	 83	 1	 497	 15	 393	 13504802	 13505258	 1	 right	 L	 18.296	 1
12	 1	 84	 1	 498	 -14	 397	 13524870	 13525305	 0	 x	 R	 14.055	 0
12	 1	 85	 1	 503	 9	 393	 13564486	 13565042	 1	 right	 L	 5.261	 0
12	 1	 86	 1	 512	 0	 365	 13572198	 13572626	 0	 x	 R	 5.622	 0
12	 1	 87	 1	 494	 -18	 363	 13579662	 13579929	 1	 left	 R	 7.092	 1
12	 1	 88	 1	 514	 2	 357	 13588201	 13588612	 0	 x	 R	 7.646	 0
12	 1	 89	 1	 496	 16	 402	 13597904	 13598330	 1	 right	 L	 9.576	 1
12	 1	 90	 1	 506	 6	 373	 13628633	 13629328	 1	 left	 L	 6.879	 1
12	 1	 91	 1	 507	 5	 370	 13638359	 13638831	 0	 x	 L	 4.026	 0
12	 1	 92	 1	 500	 12	 374	 13644760	 13644918	 0	 x	 L	 11.047	 0
12	 1	 93	 1	 500	 -12	 396	 13658124	 13658462	 1	 left	 R	 13.703	 1
12	 1	 94	 1	 498	 14	 380	 13693777	 13694423	 1	 right	 L	 4.149	 1
12	 1	 95	 1	 508	 -4	 353	 13699977	 13700532	 1	 right	 R	 9.113	 1
12	 1	 96	 1	 504	 -8	 337	 13710639	 13711040	 1	 left	 R	 7.995	 1
13	 1	 1	 1	 508	 -4	 385	 502327	 502871	 1	 left	 R	 1.060	 1
13	 1	 2	 1	 521	 9	 394	 504439	 504922	 1	 right	 R	 0.999	 1
13	 1	 3	 1	 531	 -19	 389	 506545	 506966	 0	 x	 L	 0.864	 0
13	 1	 4	 1	 510	 -2	 389	 508651	 509167	 1	 left	 R	 0.888	 1
13	 1	 5	 1	 511	 -1	 383	 510790	 511192	 0	 x	 R	 0.800	 0
13	 1	 6	 1	 509	 -3	 390	 513751	 514172	 0	 x	 R	 1.801	 0
13	 1	 7	 1	 516	 4	 385	 516712	 516969	 1	 left	 R	 1.081	 1
13	 1	 8	 1	 515	 -3	 378	 518845	 519265	 0	 x	 L	 1.438	 0
13	 1	 9	 1	 515	 3	 380	 521746	 522206	 1	 left	 R	 2.749	 1
13	 1	 10	 1	 511	 1	 391	 525643	 526059	 1	 right	 L	 2.313	 1
13	 1	 11	 1	 515	 -3	 387	 531009	 531441	 1	 left	 L	 1.889	 1
13	 1	 12	 1	 521	 -9	 395	 535261	 535701	 1	 left	 L	 1.729	 1
13	 1	 13	 1	 504	 8	 398	 538140	 538588	 1	 left	 L	 1.481	 1
13	 1	 14	 1	 494	 18	 298	 542501	 542766	 1	 left	 L	 1.162	 1
13	 1	 15	 1	 510	 -2	 391	 544681	 545120	 1	 right	 R	 1.122	 1
13	 1	 16	 1	 513	 1	 384	 547153	 547585	 0	 x	 R	 8.214	 1
13	 1	 17	 1	 513	 -1	 369	 556591	 557059	 0	 x	 L	 6.539	 1
13	 1	 18	 1	 495	 -17	 385	 570012	 570246	 1	 right	 R	 1.930	 1
13	 1	 19	 1	 536	 24	 378	 572831	 573066	 0	 x	 R	 15.377	 1
13	 1	 20	 1	 509	 -3	 386	 590558	 591000	 1	 left	 R	 6.794	 1
13	 1	 21	 1	 521	 -9	 370	 599103	 599508	 1	 left	 L	 1.662	 1
13	 1	 22	 1	 526	 14	 392	 601863	 602112	 0	 x	 R	 8.135	 0
13	 1	 23	 1	 510	 2	 381	 611550	 612105	 1	 left	 L	 1.058	 1
13	 1	 24	 1	 514	 -2	 391	 613793	 614174	 1	 right	 L	 9.700	 0
13	 1	 25	 1	 520	 -8	 387	 624559	 625095	 0	 x	 L	 13.639	 0
13	 1	 26	 1	 523	 11	 377	 639259	 639702	 1	 right	 R	 1.070	 1
13	 1	 27	 1	 525	 -13	 378	 642981	 643346	 0	 x	 L	 11.932	 1
13	 1	 28	 1	 511	 -1	 388	 655963	 656376	 0	 x	 R	 11.006	 1
13	 1	 29	 1	 515	 -3	 387	 674522	 675104	 0	 x	 L	 15.635	 1
13	 1	 30	 1	 501	 11	 383	 691307	 691739	 1	 left	 L	 1.002	 1
13	 1	 31	 1	 506	 -6	 376	 693958	 694376	 0	 x	 R	 4.074	 0
13	 1	 32	 1	 507	 -5	 395	 699591	 700022	 0	 x	 R	 12.800	 1
13	 1	 33	 1	 511	 1	 389	 714047	 714459	 1	 right	 L	 5.966	 0
13	 1	 34	 1	 0	 0	 0	 714047	 714459	 120	 x	 x	 5.966	 0
13	 1	 35	 1	 518	 -6	 390	 723800	 724339	 0	 x	 L	 14.106	 1
13	 1	 36	 1	 507	 5	 380	 739055	 739479	 0	 x	 L	 7.504	 1
13	 1	 37	 1	 498	 14	 395	 747797	 748209	 0	 x	 L	 10.596	 1
13	 1	 38	 1	 526	 14	 374	 760445	 760886	 1	 right	 R	 1.501	 1
13	 1	 39	 1	 620	 -108	 257	 763629	 763851	 1	 right	 L	 8.823	 1
13	 1	 40	 1	 525	 -13	 385	 773971	 774368	 0	 x	 L	 8.312	 1
13	 1	 41	 1	 501	 -11	 383	 784236	 784724	 1	 left	 R	 10.202	 0
13	 1	 42	 1	 523	 11	 371	 795556	 796097	 0	 x	 R	 4.284	 1
13	 1	 43	 1	 526	 14	 398	 802093	 802516	 1	 left	 R	 11.772	 0
13	 1	 44	 1	 520	 8	 398	 815427	 815938	 0	 x	 R	 8.572	 0
13	 1	 45	 1	 514	 2	 384	 825088	 825542	 0	 x	 R	 2.393	 0
13	 1	 46	 1	 514	 -2	 375	 828941	 829474	 1	 left	 L	 1.040	 1
13	 1	 47	 1	 514	 -2	 389	 831435	 831998	 0	 x	 L	 2.689	 1
13	 1	 48	 1	 518	 -6	 392	 835674	 835915	 0	 x	 L	 9.152	 1
13	 1	 49	 1	 509	 -3	 384	 845917	 846354	 1	 left	 R	 8.703	 0
13	 1	 50	 1	 516	 4	 400	 855883	 856283	 1	 right	 R	 0.910	 1
13	 1	 51	 1	 500	 12	 396	 858245	 858647	 1	 left	 L	 0.809	 0
13	 1	 52	 1	 507	 5	 375	 860503	 860946	 0	 x	 L	 8.553	 1
13	 1	 53	 1	 500	 -12	 380	 870104	 870587	 1	 right	 R	 1.644	 1
13	 1	 54	 1	 510	 2	 384	 874100	 874532	 1	 right	 L	 9.328	 0
13	 1	 55	 1	 605	 -93	 353	 884999	 885280	 0	 x	 L	 7.794	 1
13	 1	 56	 1	 517	 -5	 379	 893655	 893872	 1	 right	 L	 7.923	 0
13	 1	 57	 1	 671	 -159	 358	 903255	 903582	 0	 x	 L	 6.594	 1
13	 1	 58	 1	 553	 41	 347	 910915	 911097	 0	 x	 R	 7.199	 0
13	 1	 59	 1	 510	 -2	 377	 919257	 919733	 1	 right	 R	 1.000	 0
13	 1	 60	 1	 510	 -2	 383	 922006	 922424	 1	 right	 R	 0.831	 1
13	 1	 61	 1	 646	 134	 346	 924069	 924104	 0	 x	 R	 9.521	 1
13	 1	 62	 1	 514	 -2	 385	 934542	 934818	 0	 x	 L	 11.389	 1
13	 1	 63	 1	 531	 19	 397	 947276	 947761	 1	 left	 R	 8.412	 0
13	 1	 64	 1	 530	 18	 398	 956893	 957344	 0	 x	 R	 5.900	 1
13	 1	 65	 1	 472	 40	 293	 964452	 964676	 1	 left	 L	 1.012	 1
13	 1	 66	 1	 508	 4	 389	 966505	 966897	 0	 x	 L	 7.971	 0
13	 1	 67	 1	 507	 -5	 385	 975938	 976380	 0	 x	 R	 6.512	 1
13	 1	 68	 1	 507	 5	 388	 983879	 984118	 0	 x	 L	 21.428	 1
13	 1	 69	 1	 620	 -108	 345	 1006975	 1007248	 0	 x	 L	 6.802	 0
13	 1	 70	 1	 516	 -4	 331	 1014722	 1014963	 0	 x	 L	 10.853	 0
13	 1	 71	 1	 593	 81	 321	 1027281	 1027551	 1	 left	 R	 7.120	 1
13	 1	 72	 1	 513	 1	 402	 1035612	 1036003	 1	 right	 R	 0.799	 1
13	 1	 73	 1	 514	 2	 384	 1038164	 1038390	 1	 right	 R	 0.808	 1
13	 1	 74	 1	 507	 5	 394	 1044422	 1044983	 1	 right	 L	 2.239	 1
13	 1	 75	 1	 502	 -10	 386	 1052478	 1052975	 1	 right	 R	 1.162	 1
13	 1	 76	 1	 508	 -4	 398	 1054834	 1055225	 0	 x	 R	 8.716	 1
13	 1	 77	 1	 514	 2	 386	 1065099	 1065538	 0	 x	 R	 8.255	 1
13	 1	 78	 1	 506	 -6	 395	 1074907	 1075406	 0	 x	 R	 8.141	 1
13	 1	 79	 1	 504	 8	 400	 1086402	 1087026	 0	 x	 L	 14.529	 1
13	 1	 80	 1	 494	 18	 386	 1102229	 1102709	 1	 right	 L	 5.888	 1
13	 1	 81	 1	 656	 -144	 356	 1109528	 1109763	 1	 right	 L	 3.056	 1
13	 1	 82	 1	 501	 11	 389	 1119042	 1119581	 1	 right	 L	 13.688	 0
13	 1	 83	 1	 511	 -1	 378	 1134226	 1134619	 0	 x	 R	 4.503	 1
13	 1	 84	 1	 505	 7	 391	 1140480	 1140723	 0	 x	 L	 10.283	 1
13	 1	 85	 1	 505	 7	 395	 1151812	 1152060	 0	 x	 L	 8.765	 1
13	 1	 86	 1	 514	 -2	 383	 1162126	 1162556	 1	 right	 L	 14.110	 1
13	 1	 87	 1	 494	 18	 404	 1177387	 1177811	 1	 right	 L	 10.920	 0
13	 1	 88	 1	 509	 -3	 399	 1189367	 1189850	 0	 x	 R	 11.426	 1
13	 1	 89	 1	 524	 12	 370	 1206342	 1206805	 0	 x	 R	 13.779	 1
13	 1	 90	 1	 662	 -150	 379	 1222018	 1222210	 1	 left	 L	 0.882	 1
13	 1	 91	 1	 514	 2	 388	 1223966	 1224434	 0	 x	 R	 14.377	 1
13	 1	 92	 1	 507	 -5	 402	 1239847	 1240344	 0	 x	 R	 14.886	 1
13	 1	 93	 1	 612	 100	 337	 1256368	 1256669	 1	 left	 R	 8.360	 1
13	 1	 94	 1	 509	 -3	 408	 1265667	 1266089	 1	 left	 R	 17.906	 0
13	 1	 95	 1	 511	 1	 385	 1284749	 1285153	 1	 left	 L	 0.916	 1
13	 1	 96	 1	 552	 40	 309	 1287074	 1287247	 0	 x	 R	 8.934	 1
14	 1	 1	 1	 496	 16	 377	 11448079	 11448515	 0	 x	 L	 4.153	 0
14	 1	 2	 1	 507	 -5	 379	 11454316	 11454735	 1	 left	 R	 4.571	 1
14	 1	 3	 1	 510	 -2	 387	 11460750	 11461169	 0	 x	 R	 12.967	 0
14	 1	 4	 1	 507	 -5	 391	 11474977	 11475438	 1	 left	 R	 11.136	 1
14	 1	 5	 1	 503	 -9	 364	 11487391	 11487808	 1	 right	 R	 3.551	 0
14	 1	 6	 1	 506	 -6	 382	 11492706	 11493150	 1	 left	 R	 18.806	 1
14	 1	 7	 1	 500	 12	 382	 11512662	 11513206	 0	 x	 L	 26.664	 0
14	 1	 8	 1	 501	 -11	 379	 11540621	 11541075	 0	 x	 R	 22.608	 0
14	 1	 9	 1	 501	 -11	 372	 11564291	 11564798	 0	 x	 R	 19.029	 0
14	 1	 10	 1	 492	 20	 373	 11584402	 11584825	 0	 x	 L	 25.794	 0
14	 1	 11	 1	 498	 14	 382	 11611235	 11611644	 1	 left	 L	 2.986	 0
14	 1	 12	 1	 512	 0	 381	 11615981	 11616447	 0	 x	 R	 23.637	 0
14	 1	 13	 1	 506	 -6	 379	 11640657	 11641022	 0	 x	 R	 3.234	 0
14	 1	 14	 1	 502	 10	 367	 11645654	 11646050	 0	 x	 L	 2.469	 0
14	 1	 15	 1	 508	 4	 357	 11648996	 11649394	 1	 right	 L	 4.859	 1
14	 1	 16	 1	 508	 -4	 376	 11654978	 11655405	 1	 left	 R	 7.832	 1
14	 1	 17	 1	 504	 -8	 382	 11663866	 11664273	 1	 right	 R	 2.625	 0
14	 1	 18	 1	 507	 5	 366	 11667953	 11668474	 1	 left	 L	 1.610	 0
14	 1	 19	 1	 689	 177	 380	 11670962	 11671231	 0	 x	 R	 22.168	 0
14	 1	 20	 1	 506	 -6	 368	 11693882	 11694389	 1	 right	 R	 1.769	 0
14	 1	 21	 1	 518	 6	 365	 11696521	 11696901	 0	 x	 R	 4.742	 0
14	 1	 22	 1	 702	 -190	 314	 11702383	 11702654	 1	 right	 L	 4.973	 1
14	 1	 23	 1	 508	 -4	 365	 11708142	 11708521	 1	 left	 R	 12.978	 1
14	 1	 24	 1	 503	 -9	 368	 11722070	 11722474	 0	 x	 R	 25.580	 0
14	 1	 25	 1	 511	 -1	 367	 11749712	 11750084	 1	 right	 R	 0.870	 0
14	 1	 26	 1	 501	 -11	 360	 11751595	 11751997	 1	 right	 R	 2.878	 0
14	 1	 27	 1	 502	 10	 389	 11756532	 11756947	 1	 left	 L	 2.314	 0
14	 1	 28	 1	 505	 7	 371	 11760304	 11760716	 1	 left	 L	 3.743	 0
14	 1	 29	 1	 501	 11	 380	 11766008	 11766437	 0	 x	 L	 17.405	 1
14	 1	 30	 1	 505	 7	 378	 11784464	 11784898	 1	 left	 L	 2.744	 0
14	 1	 31	 1	 513	 1	 367	 11788878	 11789297	 1	 left	 R	 4.540	 1
14	 1	 32	 1	 506	 6	 376	 11794467	 11794893	 1	 left	 L	 1.313	 0
14	 1	 33	 1	 507	 5	 370	 11797042	 11797544	 0	 x	 L	 9.431	 0
14	 1	 34	 1	 389	 123	 311	 11807725	 11807944	 1	 right	 L	 9.553	 1
14	 1	 35	 1	 508	 4	 383	 11818916	 11819320	 0	 x	 L	 7.025	 0
14	 1	 36	 1	 505	 -7	 356	 11826813	 11827360	 0	 x	 R	 12.066	 1
14	 1	 37	 1	 508	 -4	 358	 11839920	 11840326	 1	 right	 R	 2.708	 0
14	 1	 38	 1	 500	 12	 360	 11843664	 11844128	 1	 right	 L	 13.008	 1
14	 1	 39	 1	 527	 -15	 384	 11857635	 11858037	 0	 x	 L	 3.669	 0
14	 1	 40	 1	 696	 184	 332	 11862552	 11862731	 0	 x	 R	 3.410	 1
14	 1	 41	 1	 517	 -5	 371	 11866762	 11867197	 1	 left	 L	 1.135	 0
14	 1	 42	 1	 512	 0	 376	 11869756	 11870169	 1	 right	 L	 3.353	 0
14	 1	 43	 1	 511	 1	 376	 11874687	 11875092	 1	 right	 L	 6.673	 0
14	 1	 44	 1	 513	 1	 378	 11882388	 11882649	 0	 x	 R	 3.845	 1
14	 1	 45	 1	 507	 5	 374	 11888093	 11888529	 0	 x	 L	 20.638	 1
14	 1	 46	 1	 518	 -6	 393	 11909814	 11910271	 0	 x	 L	 4.471	 0
14	 1	 47	 1	 503	 9	 394	 11915295	 11915798	 0	 x	 L	 1.911	 0
14	 1	 48	 1	 516	 -4	 370	 11918577	 11918979	 0	 x	 L	 2.191	 0
14	 1	 49	 1	 514	 2	 374	 11921728	 11922252	 0	 x	 R	 2.801	 0
14	 1	 50	 1	 508	 4	 377	 11926060	 11926570	 1	 right	 L	 2.450	 1
14	 1	 51	 1	 510	 2	 380	 11930562	 11931062	 0	 x	 L	 1.540	 1
14	 1	 52	 1	 521	 9	 382	 11933855	 11934321	 0	 x	 R	 2.868	 0
14	 1	 53	 1	 516	 4	 371	 11937784	 11938284	 0	 x	 R	 2.848	 0
14	 1	 54	 1	 516	 4	 368	 11942056	 11942613	 0	 x	 R	 4.471	 0
14	 1	 55	 1	 511	 -1	 362	 11947417	 11947913	 1	 left	 R	 2.081	 1
14	 1	 56	 1	 513	 -1	 366	 11951081	 11951532	 1	 left	 L	 1.392	 0
14	 1	 57	 1	 631	 119	 335	 11954033	 11954232	 1	 left	 R	 3.221	 1
14	 1	 58	 1	 512	 0	 376	 11958112	 11958577	 0	 x	 R	 3.450	 1
14	 1	 59	 1	 515	 -3	 371	 11963316	 11963769	 1	 right	 L	 2.729	 1
14	 1	 60	 1	 515	 3	 373	 11967071	 11967522	 1	 right	 R	 1.324	 0
14	 1	 61	 1	 521	 -9	 376	 11969455	 11969984	 1	 right	 L	 2.966	 1
14	 1	 62	 1	 513	 -1	 378	 11973940	 11974465	 1	 right	 L	 3.879	 1
14	 1	 63	 1	 512	 0	 382	 11979371	 11979786	 0	 x	 R	 6.270	 0
14	 1	 64	 1	 509	 -3	 379	 11986703	 11987228	 1	 right	 R	 1.336	 0
14	 1	 65	 1	 514	 -2	 382	 11989245	 11989730	 0	 x	 L	 3.073	 1
14	 1	 66	 1	 0	 0	 0	 11989245	 11989730	 1	 right	 R	 1.121	 0
14	 1	 67	 1	 500	 -12	 379	 11996168	 11996605	 0	 x	 R	 11.942	 0
14	 1	 68	 1	 507	 5	 387	 12009573	 12010008	 0	 x	 L	 13.362	 1
14	 1	 69	 1	 510	 -2	 372	 12023984	 12024601	 0	 x	 R	 1.857	 0
14	 1	 70	 1	 510	 2	 370	 12027517	 12027921	 0	 x	 L	 1.942	 0
14	 1	 71	 1	 503	 9	 377	 12030429	 12030828	 0	 x	 L	 1.941	 0
14	 1	 72	 1	 507	 5	 379	 12033330	 12033812	 1	 left	 L	 0.970	 0
14	 1	 73	 1	 510	 -2	 376	 12035213	 12035619	 1	 left	 R	 2.258	 1
14	 1	 74	 1	 510	 2	 385	 12038506	 12038969	 1	 right	 L	 2.878	 1
14	 1	 75	 1	 517	 -5	 380	 12043235	 12043672	 0	 x	 L	 3.780	 0
14	 1	 76	 1	 507	 5	 385	 12047923	 12048552	 0	 x	 L	 3.935	 1
14	 1	 77	 1	 506	 6	 386	 12052810	 12053258	 0	 x	 L	 3.839	 0
14	 1	 78	 1	 510	 -2	 376	 12058007	 12058401	 1	 right	 R	 0.752	 0
14	 1	 79	 1	 509	 3	 380	 12059820	 12060251	 1	 left	 L	 1.137	 0
14	 1	 80	 1	 515	 3	 379	 12062329	 12062675	 0	 x	 R	 5.034	 0
14	 1	 81	 1	 506	 -6	 380	 12068627	 12069075	 0	 x	 R	 4.169	 0
14	 1	 82	 1	 507	 -5	 363	 12073851	 12074292	 1	 right	 R	 1.135	 0
14	 1	 83	 1	 514	 2	 378	 12076349	 12076767	 1	 left	 R	 3.328	 1
14	 1	 84	 1	 515	 3	 369	 12081139	 12081661	 1	 left	 R	 3.001	 1
14	 1	 85	 1	 497	 15	 376	 12085185	 12085597	 1	 right	 L	 2.878	 1
14	 1	 86	 1	 501	 11	 378	 12089069	 12089515	 1	 left	 L	 0.983	 0
14	 1	 87	 1	 507	 5	 375	 12091213	 12091641	 0	 x	 L	 3.440	 0
14	 1	 88	 1	 506	 6	 384	 12095618	 12096184	 0	 x	 L	 4.424	 0
14	 1	 89	 1	 505	 -7	 385	 12101048	 12101566	 0	 x	 R	 5.640	 0
14	 1	 90	 1	 507	 5	 371	 12108080	 12108509	 1	 left	 L	 1.009	 0
14	 1	 91	 1	 433	 -79	 366	 12110872	 12111083	 0	 x	 R	 9.675	 0
14	 1	 92	 1	 512	 0	 364	 12121681	 12122060	 1	 left	 R	 5.614	 0
14	 1	 93	 1	 498	 14	 392	 12128756	 12129221	 0	 x	 L	 7.103	 0
14	 1	 94	 1	 506	 6	 376	 12136905	 12137403	 0	 x	 L	 11.248	 0
14	 1	 95	 1	 515	 3	 385	 12149194	 12149695	 0	 x	 R	 7.732	 0
14	 1	 96	 1	 0	 0	 0	 12149194	 12149695	 1	 right	 R	 1.020	 0
15	 1	 1	 1	 496	 -16	 396	 1451025	 1451235	 0	 x	 R	 5.214	 1
15	 1	 2	 1	 502	 -10	 392	 1457468	 1457913	 0	 x	 R	 5.830	 1
15	 1	 3	 1	 509	 3	 403	 1464635	 1465044	 0	 x	 L	 6.525	 1
15	 1	 4	 1	 508	 4	 402	 1474352	 1474792	 1	 right	 L	 7.280	 0
15	 1	 5	 1	 511	 1	 393	 1484698	 1485141	 1	 left	 L	 1.179	 1
15	 1	 6	 1	 514	 -2	 391	 1487528	 1488004	 0	 x	 L	 5.461	 1
15	 1	 7	 1	 510	 -2	 393	 1495741	 1496193	 0	 x	 R	 4.111	 1
15	 1	 8	 1	 506	 -6	 396	 1501200	 1501658	 0	 x	 R	 4.685	 1
15	 1	 9	 1	 508	 4	 392	 1509135	 1509587	 0	 x	 L	 4.072	 1
15	 1	 10	 1	 513	 1	 393	 1514458	 1514683	 1	 left	 R	 4.561	 0
15	 1	 11	 1	 510	 -2	 393	 1520283	 1520686	 1	 right	 R	 1.118	 1
15	 1	 12	 1	 515	 3	 396	 1524152	 1524536	 0	 x	 R	 5.551	 1
15	 1	 13	 1	 518	 6	 393	 1530949	 1531400	 0	 x	 R	 5.286	 1
15	 1	 14	 1	 512	 0	 388	 1538787	 1539237	 1	 right	 L	 6.213	 0
15	 1	 15	 1	 514	 2	 397	 1547158	 1547421	 1	 right	 R	 0.863	 1
15	 1	 16	 1	 516	 4	 392	 1549068	 1549522	 0	 x	 R	 7.415	 1
15	 1	 17	 1	 519	 7	 396	 1558435	 1558862	 1	 left	 R	 3.310	 1
15	 1	 18	 1	 516	 4	 397	 1564095	 1564537	 1	 right	 R	 0.892	 1
15	 1	 19	 1	 509	 3	 401	 1566638	 1567092	 0	 x	 L	 5.292	 1
15	 1	 20	 1	 512	 0	 397	 1573380	 1573808	 1	 left	 L	 0.896	 1
15	 1	 21	 1	 512	 0	 393	 1575504	 1575973	 0	 x	 R	 3.519	 1
15	 1	 22	 1	 514	 -2	 396	 1581071	 1581306	 0	 x	 L	 4.203	 1
15	 1	 23	 1	 516	 4	 402	 1587124	 1587550	 0	 x	 R	 4.953	 1
15	 1	 24	 1	 502	 -10	 390	 1593394	 1593599	 1	 left	 R	 4.198	 0
15	 1	 25	 1	 517	 -5	 388	 1599141	 1599626	 1	 left	 L	 0.940	 1
15	 1	 26	 1	 524	 -12	 396	 1601231	 1601492	 0	 x	 L	 5.752	 1
15	 1	 27	 1	 519	 7	 399	 1609077	 1609359	 1	 left	 R	 5.003	 0
15	 1	 28	 1	 513	 1	 396	 1615795	 1616255	 0	 x	 R	 5.903	 0
15	 1	 29	 1	 511	 -1	 396	 1624950	 1625391	 0	 x	 R	 6.082	 1
15	 1	 30	 1	 515	 -3	 392	 1632581	 1633048	 0	 x	 L	 5.294	 1
15	 1	 31	 1	 514	 -2	 398	 1639525	 1639969	 0	 x	 L	 4.702	 1
15	 1	 32	 1	 508	 -4	 400	 1645779	 1646197	 1	 right	 R	 1.040	 1
15	 1	 33	 1	 514	 2	 402	 1648468	 1648918	 0	 x	 R	 6.473	 1
15	 1	 34	 1	 512	 0	 409	 1656594	 1657013	 1	 right	 R	 0.779	 1
15	 1	 35	 1	 518	 -6	 410	 1658820	 1659305	 0	 x	 L	 4.474	 1
15	 1	 36	 1	 513	 -1	 408	 1664932	 1665355	 1	 right	 L	 7.005	 0
15	 1	 37	 1	 515	 3	 392	 1673597	 1673987	 1	 right	 R	 1.062	 1
15	 1	 38	 1	 520	 -8	 394	 1675986	 1676440	 1	 left	 L	 1.204	 1
15	 1	 39	 1	 508	 -4	 395	 1678740	 1679234	 1	 right	 R	 0.851	 1
15	 1	 40	 1	 522	 10	 386	 1680939	 1681388	 1	 left	 R	 7.224	 0
15	 1	 41	 1	 512	 0	 391	 1689522	 1689967	 1	 left	 L	 0.972	 1
15	 1	 42	 1	 519	 -7	 389	 1692167	 1692607	 0	 x	 L	 8.001	 1
15	 1	 43	 1	 514	 -2	 380	 1702012	 1702186	 1	 right	 L	 5.294	 0
15	 1	 44	 1	 517	 -5	 396	 1708414	 1708843	 1	 right	 L	 7.200	 0
15	 1	 45	 1	 513	 -1	 394	 1717574	 1718013	 1	 right	 L	 8.164	 0
15	 1	 46	 1	 512	 0	 390	 1726984	 1727381	 1	 left	 R	 5.896	 0
15	 1	 47	 1	 517	 5	 396	 1734941	 1735423	 0	 x	 R	 8.023	 1
15	 1	 48	 1	 514	 2	 391	 1744515	 1744989	 0	 x	 R	 6.322	 1
15	 1	 49	 1	 521	 -9	 394	 1752587	 1752853	 1	 left	 L	 0.902	 1
15	 1	 50	 1	 525	 -13	 385	 1754938	 1755354	 0	 x	 L	 7.274	 1
15	 1	 51	 1	 510	 2	 387	 1763709	 1764130	 0	 x	 L	 6.764	 1
15	 1	 52	 1	 508	 4	 389	 1771957	 1772203	 1	 left	 L	 0.829	 1
15	 1	 53	 1	 515	 3	 397	 1774254	 1774689	 0	 x	 R	 8.226	 1
15	 1	 54	 1	 518	 -6	 393	 1783833	 1784285	 0	 x	 L	 5.210	 1
15	 1	 55	 1	 515	 -3	 395	 1790293	 1790528	 1	 left	 L	 0.750	 1
15	 1	 56	 1	 521	 9	 397	 1792694	 1793134	 0	 x	 R	 5.592	 1
15	 1	 57	 1	 514	 -2	 383	 1800035	 1800469	 1	 right	 L	 4.163	 0
15	 1	 58	 1	 486	 26	 349	 1805991	 1806260	 0	 x	 L	 6.829	 1
15	 1	 59	 1	 517	 5	 392	 1813664	 1814079	 1	 right	 R	 0.778	 1
15	 1	 60	 1	 514	 2	 396	 1815694	 1816113	 1	 left	 R	 6.420	 0
15	 1	 61	 1	 518	 6	 393	 1823374	 1823851	 1	 left	 R	 6.774	 0
15	 1	 62	 1	 519	 7	 398	 1831478	 1831917	 1	 left	 R	 7.363	 0
15	 1	 63	 1	 511	 1	 389	 1840203	 1840693	 1	 right	 L	 9.472	 0
15	 1	 64	 1	 349	 163	 228	 1851607	 1851903	 0	 x	 L	 12.513	 0
15	 1	 65	 1	 515	 3	 409	 1865783	 1866262	 0	 x	 R	 8.311	 1
15	 1	 66	 1	 516	 4	 392	 1875297	 1875715	 0	 x	 R	 6.750	 1
15	 1	 67	 1	 519	 7	 408	 1883146	 1883573	 1	 right	 R	 0.903	 1
15	 1	 68	 1	 518	 -6	 325	 1886022	 1886260	 0	 x	 L	 10.662	 1
15	 1	 69	 1	 516	 4	 397	 1898967	 1899239	 0	 x	 R	 8.980	 1
15	 1	 70	 1	 516	 -4	 400	 1909106	 1909490	 0	 x	 L	 7.925	 1
15	 1	 71	 1	 518	 -6	 396	 1918681	 1918923	 0	 x	 L	 6.563	 1
15	 1	 72	 1	 517	 5	 399	 1926529	 1926815	 1	 right	 R	 1.037	 1
15	 1	 73	 1	 525	 13	 391	 1928913	 1929323	 0	 x	 R	 10.036	 1
15	 1	 74	 1	 518	 6	 388	 1940157	 1940516	 0	 x	 R	 7.585	 1
15	 1	 75	 1	 0	 0	 0	 1940157	 1940516	 1	 left	 L	 0.917	 0
15	 1	 76	 1	 519	 7	 399	 1955783	 1956322	 0	 x	 R	 5.544	 0
15	 1	 77	 1	 514	 2	 398	 1963289	 1963774	 1	 left	 R	 6.382	 1
15	 1	 78	 1	 526	 -14	 396	 1970822	 1971273	 1	 left	 L	 0.841	 1
15	 1	 79	 1	 520	 -8	 393	 1975549	 1975973	 0	 x	 L	 6.282	 1
15	 1	 80	 1	 502	 10	 384	 1983241	 1983555	 1	 left	 L	 0.848	 1
15	 1	 81	 1	 523	 -11	 398	 1985549	 1986008	 1	 right	 L	 5.300	 0
15	 1	 82	 1	 525	 -13	 393	 1992108	 1992357	 0	 x	 L	 9.275	 1
15	 1	 83	 1	 523	 11	 395	 2002536	 2002959	 1	 right	 R	 0.748	 1
15	 1	 84	 1	 519	 -7	 399	 2004642	 2005065	 1	 right	 L	 6.565	 0
15	 1	 85	 1	 517	 -5	 396	 2013156	 2013385	 1	 right	 L	 7.801	 0
15	 1	 86	 1	 525	 13	 402	 2022130	 2022348	 0	 x	 R	 8.845	 1
15	 1	 87	 1	 519	 7	 393	 2032525	 2033022	 1	 left	 R	 5.782	 1
15	 1	 88	 1	 528	 16	 395	 2039856	 2040275	 1	 left	 R	 9.125	 1
15	 1	 89	 1	 511	 1	 391	 2050424	 2050789	 1	 right	 L	 10.115	 0
15	 1	 90	 1	 521	 -9	 395	 2061904	 2062138	 0	 x	 L	 8.475	 1
15	 1	 91	 1	 506	 6	 380	 2071723	 2071925	 0	 x	 L	 5.396	 0
15	 1	 92	 1	 521	 -9	 407	 2078380	 2078627	 0	 x	 L	 5.144	 1
15	 1	 93	 1	 551	 -39	 327	 2085272	 2085444	 1	 left	 L	 0.702	 1
15	 1	 94	 1	 523	 11	 399	 2087524	 2087966	 1	 right	 R	 0.973	 1
15	 1	 95	 1	 525	 13	 393	 2090049	 2090516	 0	 x	 R	 7.331	 1
15	 1	 96	 1	 526	 -14	 399	 2098632	 2099089	 0	 x	 L	 5.530	 1
16	 1	 1	 1	 500	 12	 375	 18947504	 18948012	 0	 x	 L	 1.475	 1
16	 1	 2	 1	 505	 7	 377	 18950727	 18951147	 1	 right	 L	 0.963	 0
16	 1	 3	 1	 505	 -7	 378	 18955653	 18956160	 0	 x	 R	 1.480	 1
16	 1	 4	 1	 505	 7	 378	 18958384	 18958868	 0	 x	 L	 1.238	 1
16	 1	 5	 1	 505	 7	 374	 18961073	 18961534	 1	 right	 L	 0.960	 0
16	 1	 6	 1	 503	 9	 372	 18963559	 18963966	 0	 x	 L	 1.607	 1
16	 1	 7	 1	 504	 -8	 373	 18968475	 18969001	 0	 x	 R	 2.172	 1
16	 1	 8	 1	 512	 0	 380	 18972074	 18972379	 0	 x	 R	 1.750	 1
16	 1	 9	 1	 511	 1	 376	 18979802	 18980286	 1	 left	 L	 1.009	 1
16	 1	 10	 1	 517	 -5	 374	 18982506	 18982908	 1	 right	 L	 1.246	 0
16	 1	 11	 1	 500	 12	 379	 18985211	 18985643	 1	 left	 L	 1.042	 1
16	 1	 12	 1	 508	 4	 372	 18987601	 18988030	 1	 right	 L	 2.073	 0
16	 1	 13	 1	 528	 16	 378	 18992335	 18992742	 0	 x	 R	 3.012	 1
16	 1	 14	 1	 509	 -3	 375	 18998998	 18999601	 1	 right	 R	 1.019	 1
16	 1	 15	 1	 511	 1	 378	 19002949	 19003393	 1	 left	 L	 1.071	 1
16	 1	 16	 1	 497	 15	 379	 19005468	 19005938	 1	 right	 L	 1.732	 0
16	 1	 17	 1	 513	 1	 377	 19008762	 19009275	 0	 x	 R	 1.568	 1
16	 1	 18	 1	 533	 -21	 375	 19012643	 19013039	 1	 left	 L	 0.930	 1
16	 1	 19	 1	 519	 7	 377	 19015521	 19015927	 1	 left	 R	 1.640	 0
16	 1	 20	 1	 523	 11	 370	 19020943	 19021309	 1	 right	 R	 1.021	 1
16	 1	 21	 1	 506	 6	 379	 19023391	 19023812	 0	 x	 L	 1.677	 1
16	 1	 22	 1	 526	 14	 371	 19027517	 19027952	 1	 left	 R	 2.320	 0
16	 1	 23	 1	 520	 -8	 373	 19033673	 19034180	 0	 x	 L	 1.451	 1
16	 1	 24	 1	 525	 -13	 372	 19036979	 19037457	 0	 x	 L	 1.616	 1
16	 1	 25	 1	 509	 3	 374	 19039850	 19040311	 0	 x	 L	 2.000	 1
16	 1	 26	 1	 491	 -21	 372	 19043106	 19043622	 0	 x	 R	 2.282	 1
16	 1	 27	 1	 518	 6	 372	 19047612	 19047967	 0	 x	 R	 1.995	 1
16	 1	 28	 1	 509	 -3	 371	 19051058	 19051561	 0	 x	 R	 1.990	 1
16	 1	 29	 1	 503	 -9	 374	 19059226	 19059602	 0	 x	 R	 2.755	 1
16	 1	 30	 1	 504	 8	 370	 19063510	 19063889	 0	 x	 L	 1.973	 1
16	 1	 31	 1	 501	 11	 371	 19066835	 19067292	 1	 left	 L	 0.939	 1
16	 1	 32	 1	 507	 5	 368	 19069323	 19069802	 0	 x	 L	 1.617	 1
16	 1	 33	 1	 497	 15	 367	 19072398	 19072967	 0	 x	 L	 1.582	 1
16	 1	 34	 1	 513	 1	 372	 19075669	 19076130	 1	 right	 R	 0.942	 1
16	 1	 35	 1	 512	 0	 369	 19079016	 19079437	 0	 x	 R	 1.583	 1
16	 1	 36	 1	 517	 -5	 378	 19082199	 19082682	 0	 x	 L	 1.571	 1
16	 1	 37	 1	 507	 -5	 372	 19085145	 19085610	 0	 x	 R	 1.805	 1
16	 1	 38	 1	 505	 7	 379	 19093433	 19093952	 0	 x	 L	 1.208	 1
16	 1	 39	 1	 514	 -2	 375	 19096677	 19097158	 0	 x	 L	 1.855	 1
16	 1	 40	 1	 506	 -6	 377	 19099975	 19100544	 1	 left	 R	 1.533	 0
16	 1	 41	 1	 517	 5	 367	 19103214	 19103676	 0	 x	 R	 1.693	 1
16	 1	 42	 1	 508	 -4	 370	 19106551	 19107020	 0	 x	 R	 1.843	 1
16	 1	 43	 1	 390	 -122	 337	 19110271	 19110548	 1	 left	 R	 1.879	 0
16	 1	 44	 1	 523	 11	 372	 19115100	 19115491	 0	 x	 R	 1.451	 1
16	 1	 45	 1	 511	 -1	 377	 19117904	 19118381	 1	 right	 R	 0.982	 0
16	 1	 46	 1	 506	 -6	 380	 19125098	 19125553	 1	 left	 R	 1.678	 0
16	 1	 47	 1	 475	 -37	 377	 19129226	 19129553	 1	 right	 R	 1.033	 1
16	 1	 48	 1	 509	 3	 377	 19131489	 19132006	 0	 x	 L	 1.369	 1
16	 1	 49	 1	 517	 5	 372	 19135239	 19135724	 1	 left	 R	 1.581	 0
16	 1	 50	 1	 483	 29	 384	 19138228	 19138453	 1	 right	 L	 1.784	 0
16	 1	 51	 1	 523	 11	 378	 19141471	 19141972	 1	 left	 R	 2.514	 0
16	 1	 52	 1	 433	 -79	 392	 19146467	 19146840	 1	 right	 R	 0.921	 1
16	 1	 53	 1	 519	 -7	 377	 19148883	 19149348	 1	 left	 L	 0.998	 1
16	 1	 54	 1	 523	 -11	 383	 19151716	 19152003	 0	 x	 L	 1.341	 1
16	 1	 55	 1	 498	 -14	 379	 19154256	 19154783	 0	 x	 R	 1.760	 1
16	 1	 56	 1	 509	 3	 375	 19160580	 19161003	 1	 left	 L	 0.990	 1
16	 1	 57	 1	 513	 -1	 376	 19163018	 19163514	 0	 x	 L	 1.813	 1
16	 1	 58	 1	 505	 -7	 378	 19169381	 19169851	 0	 x	 R	 1.272	 1
16	 1	 59	 1	 501	 11	 377	 19172103	 19172557	 0	 x	 L	 2.482	 1
16	 1	 60	 1	 519	 -7	 374	 19175835	 19176322	 1	 right	 L	 1.741	 0
16	 1	 61	 1	 419	 -93	 407	 19179278	 19179486	 1	 left	 R	 2.078	 0
16	 1	 62	 1	 494	 -18	 384	 19182590	 19182952	 1	 right	 R	 1.028	 1
16	 1	 63	 1	 0	 0	 0	 19182590	 19182952	 1	 left	 R	 1.478	 0
16	 1	 64	 1	 516	 -4	 375	 19191168	 19191626	 1	 right	 L	 1.633	 0
16	 1	 65	 1	 505	 7	 378	 19196164	 19196621	 1	 left	 L	 1.010	 1
16	 1	 66	 1	 502	 -10	 377	 19198521	 19198909	 0	 x	 R	 2.114	 1
16	 1	 67	 1	 512	 0	 379	 19204388	 19204778	 1	 left	 R	 1.648	 0
16	 1	 68	 1	 490	 -22	 384	 19207447	 19207994	 0	 x	 R	 2.371	 1
16	 1	 69	 1	 511	 1	 375	 19211169	 19211741	 0	 x	 L	 1.907	 1
16	 1	 70	 1	 525	 -13	 379	 19215138	 19215584	 1	 right	 L	 1.373	 0
16	 1	 71	 1	 515	 3	 383	 19217771	 19218333	 1	 right	 R	 0.881	 1
16	 1	 72	 1	 515	 -3	 379	 19220820	 19221219	 0	 x	 L	 1.523	 1
16	 1	 73	 1	 514	 -2	 372	 19223693	 19224200	 0	 x	 L	 2.292	 1
16	 1	 74	 1	 523	 11	 376	 19229315	 19229779	 1	 right	 R	 0.931	 1
16	 1	 75	 1	 510	 2	 381	 19234094	 19234453	 0	 x	 L	 1.244	 1
16	 1	 76	 1	 512	 0	 376	 19237186	 19237564	 0	 x	 L	 1.093	 1
16	 1	 77	 1	 509	 3	 379	 19239963	 19240325	 1	 right	 L	 1.392	 0
16	 1	 78	 1	 512	 0	 375	 19242971	 19243468	 1	 right	 L	 1.786	 0
16	 1	 79	 1	 498	 14	 379	 19246236	 19246626	 0	 x	 L	 1.867	 1
16	 1	 80	 1	 508	 4	 377	 19249666	 19250083	 1	 right	 L	 1.358	 0
16	 1	 81	 1	 537	 25	 376	 19252586	 19252898	 0	 x	 R	 1.880	 1
16	 1	 82	 1	 510	 2	 379	 19256055	 19256521	 1	 left	 L	 0.975	 1
16	 1	 83	 1	 515	 3	 382	 19258717	 19259251	 1	 left	 R	 1.790	 0
16	 1	 84	 1	 516	 4	 376	 19264529	 19264993	 1	 right	 R	 0.920	 1
16	 1	 85	 1	 514	 2	 373	 19270500	 19271180	 0	 x	 R	 1.793	 1
16	 1	 86	 1	 511	 1	 383	 19273733	 19274325	 1	 left	 L	 0.894	 1
16	 1	 87	 1	 514	 2	 378	 19276334	 19276930	 1	 left	 R	 1.363	 0
16	 1	 88	 1	 519	 7	 374	 19281706	 19282128	 0	 x	 R	 1.819	 1
16	 1	 89	 1	 507	 5	 374	 19285479	 19286026	 1	 left	 L	 0.852	 1
